subject condition trial_type trial block resp corr_resp hit RT fileinfo schedule studied
1 0 1 0 1 0 2 0 7173 b08.gif 0 X 
1 0 1 1 1 1 2 0 1604 b07.gif 0 X 
1 0 1 2 1 1 2 0 498 b08.gif 0 X 
1 0 1 3 1 1 1 1 259 e02.gif 0 X 
1 0 1 4 1 0 2 0 811 b03.gif 0 X 
1 0 1 5 1 1 1 1 1243 e01.gif 0 X 
1 0 1 6 1 0 2 0 755 b02.gif 0 X 
1 0 1 7 1 2 2 1 762 b03.gif 0 X 
1 0 1 8 1 2 2 1 555 b03.gif 0 X 
1 0 1 9 1 1 1 1 492 e03.gif 0 X 
1 0 1 10 1 2 0 0 1510 a01.gif 0 X 
1 0 1 11 1 0 0 1 296 a05.gif 0 X 
1 0 1 12 1 2 2 1 426 b04.gif 0 X 
1 0 1 13 1 1 1 1 237 e06.gif 0 X 
1 0 1 14 1 2 2 1 1073 b04.gif 0 X 
1 0 1 15 1 2 0 0 759 a05.gif 0 X 
1 0 1 16 1 2 1 0 413 e06.gif 0 X 
1 0 1 17 1 2 2 1 1546 b06.gif 0 X 
1 0 1 18 1 2 0 0 595 a04.gif 0 X 
1 0 1 19 1 1 2 0 2100 b01.gif 0 X 
1 0 1 20 1 0 0 1 2145 a06.gif 0 X 
1 0 1 21 1 1 1 1 281 e07.gif 0 X 
1 0 1 22 1 0 0 1 123 a04.gif 0 X 
1 0 1 23 1 2 0 0 251 a07.gif 0 X 
1 0 1 24 1 2 1 0 139 e05.gif 0 X 
1 0 1 25 1 1 0 0 178 a08.gif 0 X 
1 0 1 26 1 0 1 0 537 e04.gif 0 X 
1 0 1 27 1 2 2 1 161 b02.gif 0 X 
1 0 1 28 1 1 1 1 262 e04.gif 0 X 
1 0 1 29 1 2 1 0 34 e08.gif 0 X 
1 0 1 30 1 2 0 0 226 a04.gif 0 X 
1 0 1 31 1 0 0 1 234 a01.gif 0 X 
1 0 1 32 1 2 1 0 809 e01.gif 0 X 
1 0 1 33 1 0 1 0 435 e08.gif 0 X 
1 0 1 34 1 2 2 1 186 b04.gif 0 X 
1 0 1 35 1 2 2 1 205 b08.gif 0 X 
1 0 1 36 1 2 1 0 225 e02.gif 0 X 
1 0 1 37 1 2 0 0 295 a03.gif 0 X 
1 0 1 38 1 0 1 0 179 e06.gif 0 X 
1 0 1 39 1 2 2 1 169 b05.gif 0 X 
1 0 1 40 1 1 0 0 154 a06.gif 0 X 
1 0 1 41 1 2 2 1 139 b01.gif 0 X 
1 0 1 42 1 0 0 1 650 a07.gif 0 X 
1 0 1 43 1 0 2 0 301 b06.gif 0 X 
1 0 1 44 1 2 1 0 373 e03.gif 0 X 
1 0 1 45 1 1 1 1 664 e04.gif 0 X 
1 0 1 46 1 1 0 0 2762 a03.gif 0 X 
1 0 1 47 1 1 2 0 361 b07.gif 0 X 
1 0 1 48 1 1 0 0 1492 a08.gif 0 X 
1 0 1 49 1 0 0 1 1313 a05.gif 0 X 
1 0 1 50 1 2 1 0 123 e02.gif 0 X 
1 0 1 51 1 1 2 0 738 b03.gif 0 X 
1 0 1 52 1 2 0 0 385 a08.gif 0 X 
1 0 1 53 1 1 0 0 160 a08.gif 0 X 
1 0 1 54 1 1 2 0 1444 b08.gif 0 X 
1 0 1 55 1 1 0 0 171 a07.gif 0 X 
1 0 1 56 1 0 0 1 19 a01.gif 0 X 
1 0 1 57 1 0 1 0 675 e05.gif 0 X 
1 0 1 58 1 2 0 0 1658 a02.gif 0 X 
1 0 1 59 1 2 2 1 384 b06.gif 0 X 
1 0 1 60 1 1 1 1 306 e06.gif 0 X 
1 0 1 61 1 0 2 0 211 b05.gif 0 X 
1 0 1 62 1 1 1 1 521 e08.gif 0 X 
1 0 1 63 1 0 2 0 965 b07.gif 0 X 
1 0 1 64 1 2 1 0 706 e07.gif 0 X 
1 0 1 65 1 2 0 0 35 a01.gif 0 X 
1 0 1 66 1 2 2 1 13 b01.gif 0 X 
1 0 1 67 1 2 1 0 465 e05.gif 0 X 
1 0 1 68 1 1 0 0 11 a06.gif 0 X 
1 0 1 69 1 1 1 1 729 e01.gif 0 X 
1 0 1 70 1 0 2 0 542 b02.gif 0 X 
1 0 1 71 1 2 1 0 939 e02.gif 0 X 
1 0 1 72 2 2 2 1 720 b08.gif 0 X 
1 0 1 73 2 1 2 0 1043 b07.gif 0 X 
1 0 1 74 2 2 2 1 1707 b08.gif 0 X 
1 0 1 75 2 2 1 0 188 e02.gif 0 X 
1 0 1 76 2 1 2 0 194 b03.gif 0 X 
1 0 1 77 2 0 1 0 844 e01.gif 0 X 
1 0 1 78 2 2 2 1 131 b02.gif 0 X 
1 0 1 79 2 1 2 0 307 b03.gif 0 X 
1 0 1 80 2 2 2 1 380 b03.gif 0 X 
1 0 1 81 2 1 1 1 308 e03.gif 0 X 
1 0 1 82 2 1 0 0 770 a01.gif 0 X 
1 0 1 83 2 0 0 1 235 a05.gif 0 X 
1 0 1 84 2 0 2 0 83 b04.gif 0 X 
1 0 1 85 2 1 1 1 250 e06.gif 0 X 
1 0 1 86 2 2 2 1 138 b04.gif 0 X 
1 0 1 87 2 2 0 0 124 a05.gif 0 X 
1 0 1 88 2 1 1 1 560 e06.gif 0 X 
1 0 1 89 2 2 2 1 305 b06.gif 0 X 
1 0 1 90 2 1 0 0 860 a04.gif 0 X 
1 0 1 91 2 2 2 1 331 b01.gif 0 X 
1 0 1 92 2 0 0 1 1314 a06.gif 0 X 
1 0 1 93 2 0 1 0 388 e07.gif 0 X 
1 0 1 94 2 0 0 1 353 a04.gif 0 X 
1 0 1 95 2 2 0 0 324 a07.gif 0 X 
1 0 1 96 2 1 1 1 618 e05.gif 0 X 
1 0 1 97 2 1 0 0 378 a08.gif 0 X 
1 0 1 98 2 0 1 0 154 e04.gif 0 X 
1 0 1 99 2 2 2 1 132 b02.gif 0 X 
1 0 1 100 2 1 1 1 753 e04.gif 0 X 
1 0 1 101 2 1 1 1 58 e08.gif 0 X 
1 0 1 102 2 0 0 1 244 a04.gif 0 X 
1 0 1 103 2 1 0 0 523 a01.gif 0 X 
1 0 1 104 2 1 1 1 796 e01.gif 0 X 
1 0 1 105 2 1 1 1 44 e08.gif 0 X 
1 0 1 106 2 0 2 0 242 b04.gif 0 X 
1 0 1 107 2 1 2 0 763 b08.gif 0 X 
1 0 1 108 2 1 1 1 1329 e02.gif 0 X 
1 0 1 109 2 1 0 0 299 a03.gif 0 X 
1 0 1 110 2 1 1 1 179 e06.gif 0 X 
1 0 1 111 2 0 2 0 694 b05.gif 0 X 
1 0 1 112 2 1 0 0 777 a06.gif 0 X 
1 0 1 113 2 0 2 0 666 b01.gif 0 X 
1 0 1 114 2 2 0 0 275 a07.gif 0 X 
1 0 1 115 2 2 2 1 194 b06.gif 0 X 
1 0 1 116 2 1 1 1 140 e03.gif 0 X 
1 0 1 117 2 2 1 0 659 e04.gif 0 X 
1 0 1 118 2 0 0 1 197 a03.gif 0 X 
1 0 1 119 2 2 2 1 323 b07.gif 0 X 
1 0 1 120 2 0 0 1 2438 a08.gif 0 X 
1 0 1 121 2 0 0 1 336 a05.gif 0 X 
1 0 1 122 2 1 1 1 99 e02.gif 0 X 
1 0 1 123 2 2 2 1 323 b03.gif 0 X 
1 0 1 124 2 0 0 1 2500 a08.gif 0 X 
1 0 1 125 2 0 0 1 240 a08.gif 0 X 
1 0 1 126 2 1 2 0 1682 b08.gif 0 X 
1 0 1 127 2 0 0 1 241 a07.gif 0 X 
1 0 1 128 2 2 0 0 409 a01.gif 0 X 
1 0 1 129 2 0 1 0 233 e05.gif 0 X 
1 0 1 130 2 2 0 0 97 a02.gif 0 X 
1 0 1 131 2 2 2 1 204 b06.gif 0 X 
1 0 1 132 2 1 1 1 203 e06.gif 0 X 
1 0 1 133 2 2 2 1 664 b05.gif 0 X 
1 0 1 134 2 1 1 1 681 e08.gif 0 X 
1 0 1 135 2 0 2 0 778 b07.gif 0 X 
1 0 1 136 2 1 1 1 395 e07.gif 0 X 
1 0 1 137 2 0 0 1 1266 a01.gif 0 X 
1 0 1 138 2 2 2 1 58 b01.gif 0 X 
1 0 1 139 2 2 1 0 35 e05.gif 0 X 
1 0 1 140 2 0 0 1 569 a06.gif 0 X 
1 0 1 141 2 1 1 1 513 e01.gif 0 X 
1 0 1 142 2 2 2 1 117 b02.gif 0 X 
1 0 1 143 2 1 1 1 258 e02.gif 0 X 
1 0 1 144 3 1 2 0 782 b08.gif 0 X 
1 0 1 145 3 2 2 1 131 b07.gif 0 X 
1 0 1 146 3 1 2 0 490 b08.gif 0 X 
1 0 1 147 3 1 1 1 208 e02.gif 0 X 
1 0 1 148 3 2 2 1 193 b03.gif 0 X 
1 0 1 149 3 1 1 1 356 e01.gif 0 X 
1 0 1 150 3 2 2 1 84 b02.gif 0 X 
1 0 1 151 3 2 2 1 192 b03.gif 0 X 
1 0 1 152 3 2 2 1 224 b03.gif 0 X 
1 0 1 153 3 1 1 1 137 e03.gif 0 X 
1 0 1 154 3 0 0 1 1417 a01.gif 0 X 
1 0 1 155 3 2 0 0 225 a05.gif 0 X 
1 0 1 156 3 2 2 1 176 b04.gif 0 X 
1 0 1 157 3 1 1 1 152 e06.gif 0 X 
1 0 1 158 3 0 2 0 571 b04.gif 0 X 
1 0 1 159 3 0 0 1 193 a05.gif 0 X 
1 0 1 160 3 1 1 1 107 e06.gif 0 X 
1 0 1 161 3 2 2 1 146 b06.gif 0 X 
1 0 1 162 3 0 0 1 288 a04.gif 0 X 
1 0 1 163 3 2 2 1 124 b01.gif 0 X 
1 0 1 164 3 1 0 0 692 a06.gif 0 X 
1 0 1 165 3 1 1 1 196 e07.gif 0 X 
1 0 1 166 3 0 0 1 10 a04.gif 0 X 
1 0 1 167 3 0 0 1 136 a07.gif 0 X 
1 0 1 168 3 0 1 0 1087 e05.gif 0 X 
1 0 1 169 3 2 0 0 1971 a08.gif 0 X 
1 0 1 170 3 1 1 1 809 e04.gif 0 X 
1 0 1 171 3 2 2 1 378 b02.gif 0 X 
1 0 1 172 3 0 1 0 941 e04.gif 0 X 
1 0 1 173 3 1 1 1 187 e08.gif 0 X 
1 0 1 174 3 0 0 1 20 a04.gif 0 X 
1 0 1 175 3 0 0 1 186 a01.gif 0 X 
1 0 1 176 3 1 1 1 240 e01.gif 0 X 
1 0 1 177 3 1 1 1 179 e08.gif 0 X 
1 0 1 178 3 2 2 1 1249 b04.gif 0 X 
1 0 1 179 3 2 2 1 450 b08.gif 0 X 
1 0 1 180 3 1 1 1 122 e02.gif 0 X 
1 0 1 181 3 2 0 0 2186 a03.gif 0 X 
1 0 1 182 3 1 1 1 145 e06.gif 0 X 
1 0 1 183 3 0 2 0 435 b05.gif 0 X 
1 0 1 184 3 0 0 1 447 a06.gif 0 X 
1 0 1 185 3 1 2 0 617 b01.gif 0 X 
1 0 1 186 3 0 0 1 122 a07.gif 0 X 
1 0 1 187 3 2 2 1 197 b06.gif 0 X 
1 0 1 188 3 1 1 1 243 e03.gif 0 X 
1 0 1 189 3 0 1 0 3452 e04.gif 0 X 
1 0 1 190 3 0 0 1 97 a03.gif 0 X 
1 0 1 191 3 0 2 0 82 b07.gif 0 X 
1 0 1 192 3 2 0 0 1469 a08.gif 0 X 
1 0 1 193 3 0 0 1 210 a05.gif 0 X 
1 0 1 194 3 1 1 1 49 e02.gif 0 X 
1 0 1 195 3 2 2 1 114 b03.gif 0 X 
1 0 1 196 3 0 0 1 717 a08.gif 0 X 
1 0 1 197 3 0 0 1 187 a08.gif 0 X 
1 0 1 198 3 2 2 1 50 b08.gif 0 X 
1 0 1 199 3 0 0 1 81 a07.gif 0 X 
1 0 1 200 3 0 0 1 496 a01.gif 0 X 
1 0 1 201 3 0 1 0 98 e05.gif 0 X 
1 0 1 202 3 0 0 1 336 a02.gif 0 X 
1 0 1 203 3 2 2 1 298 b06.gif 0 X 
1 0 1 204 3 1 1 1 219 e06.gif 0 X 
1 0 1 205 3 2 2 1 156 b05.gif 0 X 
1 0 1 206 3 1 1 1 149 e08.gif 0 X 
1 0 1 207 3 0 2 0 515 b07.gif 0 X 
1 0 1 208 3 1 1 1 397 e07.gif 0 X 
1 0 1 209 3 0 0 1 195 a01.gif 0 X 
1 0 1 210 3 2 2 1 98 b01.gif 0 X 
1 0 1 211 3 0 1 0 184 e05.gif 0 X 
1 0 1 212 3 2 0 0 25 a06.gif 0 X 
1 0 1 213 3 1 1 1 562 e01.gif 0 X 
1 0 1 214 3 2 2 1 58 b02.gif 0 X 
1 0 1 215 3 1 1 1 161 e02.gif 0 X 
1 0 1 216 4 2 2 1 1206 b08.gif 0 X 
1 0 1 217 4 1 2 0 908 b07.gif 0 X 
1 0 1 218 4 2 2 1 209 b08.gif 0 X 
1 0 1 219 4 1 1 1 120 e02.gif 0 X 
1 0 1 220 4 2 2 1 2011 b03.gif 0 X 
1 0 1 221 4 1 1 1 168 e01.gif 0 X 
1 0 1 222 4 2 2 1 272 b02.gif 0 X 
1 0 1 223 4 2 2 1 235 b03.gif 0 X 
1 0 1 224 4 2 2 1 169 b03.gif 0 X 
1 0 1 225 4 1 1 1 169 e03.gif 0 X 
1 0 1 226 4 0 0 1 309 a01.gif 0 X 
1 0 1 227 4 0 0 1 643 a05.gif 0 X 
1 0 1 228 4 2 2 1 91 b04.gif 0 X 
1 0 1 229 4 1 1 1 26 e06.gif 0 X 
1 0 1 230 4 2 2 1 154 b04.gif 0 X 
1 0 1 231 4 0 0 1 219 a05.gif 0 X 
1 0 1 232 4 1 1 1 64 e06.gif 0 X 
1 0 1 233 4 2 2 1 459 b06.gif 0 X 
1 0 1 234 4 0 0 1 617 a04.gif 0 X 
1 0 1 235 4 0 2 0 581 b01.gif 0 X 
1 0 1 236 4 0 0 1 923 a06.gif 0 X 
1 0 1 237 4 1 1 1 473 e07.gif 0 X 
1 0 1 238 4 0 0 1 280 a04.gif 0 X 
1 0 1 239 4 0 0 1 777 a07.gif 0 X 
1 0 1 240 4 1 1 1 571 e05.gif 0 X 
1 0 1 241 4 0 0 1 518 a08.gif 0 X 
1 0 1 242 4 2 1 0 723 e04.gif 0 X 
1 0 1 243 4 2 2 1 297 b02.gif 0 X 
1 0 1 244 4 1 1 1 99 e04.gif 0 X 
1 0 1 245 4 1 1 1 48 e08.gif 0 X 
1 0 1 246 4 0 0 1 186 a04.gif 0 X 
1 0 1 247 4 0 0 1 258 a01.gif 0 X 
1 0 1 248 4 1 1 1 109 e01.gif 0 X 
1 0 1 249 4 1 1 1 176 e08.gif 0 X 
1 0 1 250 4 2 2 1 116 b04.gif 0 X 
1 0 1 251 4 2 2 1 146 b08.gif 0 X 
1 0 1 252 4 1 1 1 122 e02.gif 0 X 
1 0 1 253 4 0 0 1 168 a03.gif 0 X 
1 0 1 254 4 1 1 1 33 e06.gif 0 X 
1 0 1 255 4 2 2 1 554 b05.gif 0 X 
1 0 1 256 4 0 0 1 171 a06.gif 0 X 
1 0 1 257 4 2 2 1 107 b01.gif 0 X 
1 0 1 258 4 0 0 1 24 a07.gif 0 X 
1 0 1 259 4 2 2 1 142 b06.gif 0 X 
1 0 1 260 4 1 1 1 365 e03.gif 0 X 
1 0 1 261 4 2 1 0 115 e04.gif 0 X 
1 0 1 262 4 0 0 1 480 a03.gif 0 X 
1 0 1 263 4 2 2 1 789 b07.gif 0 X 
1 0 1 264 4 1 0 0 1186 a08.gif 0 X 
1 0 1 265 4 0 0 1 354 a05.gif 0 X 
1 0 1 266 4 1 1 1 27 e02.gif 0 X 
1 0 1 267 4 2 2 1 74 b03.gif 0 X 
1 0 1 268 4 0 0 1 82 a08.gif 0 X 
1 0 1 269 4 0 0 1 91 a08.gif 0 X 
1 0 1 270 4 2 2 1 33 b08.gif 0 X 
1 0 1 271 4 0 0 1 146 a07.gif 0 X 
1 0 1 272 4 0 0 1 176 a01.gif 0 X 
1 0 1 273 4 1 1 1 193 e05.gif 0 X 
1 0 1 274 4 1 0 0 83 a02.gif 0 X 
1 0 1 275 4 2 2 1 23 b06.gif 0 X 
1 0 1 276 4 1 1 1 57 e06.gif 0 X 
1 0 1 277 4 2 2 1 301 b05.gif 0 X 
1 0 1 278 4 1 1 1 146 e08.gif 0 X 
1 0 1 279 4 2 2 1 122 b07.gif 0 X 
1 0 1 280 4 1 1 1 98 e07.gif 0 X 
1 0 1 281 4 0 0 1 104 a01.gif 0 X 
1 0 1 282 4 2 2 1 273 b01.gif 0 X 
1 0 1 283 4 1 1 1 187 e05.gif 0 X 
1 0 1 284 4 0 0 1 68 a06.gif 0 X 
1 0 1 285 4 1 1 1 260 e01.gif 0 X 
1 0 1 286 4 2 2 1 18 b02.gif 0 X 
1 0 1 287 4 1 1 1 122 e02.gif 0 X 
1 0 3 288 5 2 2 1 281 b05.gif 0 1
1 0 3 289 5 2 2 1 1583 b09.gif 0 0
1 0 3 290 5 1 1 1 543 e07.gif 0 1
1 0 3 291 5 0 0 1 1088 a16.gif 0 0
1 0 3 292 5 1 1 1 847 e10.gif 0 0
1 0 3 293 5 2 2 1 296 b15.gif 0 0
1 0 3 294 5 1 1 1 118 e03.gif 0 1
1 0 3 295 5 0 0 1 351 a07.gif 0 1
1 0 3 296 5 1 0 0 807 a09.gif 0 0
1 0 3 297 5 0 0 1 528 a03.gif 0 1
1 0 3 298 5 1 2 0 655 b01.gif 0 1
1 0 3 299 5 0 0 1 71 a01.gif 0 1
1 0 3 300 5 1 1 1 239 e12.gif 0 0
1 0 3 301 5 2 2 1 383 b10.gif 0 0
1 0 3 302 5 1 1 1 23 e06.gif 0 1
1 0 3 303 5 1 1 1 247 e05.gif 0 1
1 0 3 304 5 2 0 0 150 a14.gif 0 0
1 0 3 305 5 2 2 1 328 b14.gif 0 0
1 0 3 306 5 2 2 1 304 b02.gif 0 1
1 0 3 307 5 1 1 1 113 e04.gif 0 1
1 0 3 308 5 2 2 1 231 b08.gif 0 1
1 0 3 309 5 0 1 0 816 e15.gif 0 0
1 0 3 310 5 0 0 1 285 a05.gif 0 1
1 0 3 311 5 2 2 1 87 b04.gif 0 1
1 0 3 312 5 2 0 0 832 a11.gif 0 0
1 0 3 313 5 0 0 1 2717 a08.gif 0 1
1 0 3 314 5 1 0 0 590 a13.gif 0 0
1 0 3 315 5 2 1 0 983 e09.gif 0 0
1 0 3 316 5 0 0 1 224 a06.gif 0 1
1 0 3 317 5 1 1 1 360 e14.gif 0 0
1 0 3 318 5 2 2 1 392 b13.gif 0 0
1 0 3 319 5 1 1 1 679 e16.gif 0 0
1 0 3 320 5 1 1 1 192 e13.gif 0 0
1 0 3 321 5 0 0 1 329 a04.gif 0 1
1 0 3 322 5 1 1 1 32 e01.gif 0 1
1 0 3 323 5 0 2 0 1855 b16.gif 0 0
1 0 3 324 5 1 0 0 537 a12.gif 0 0
1 0 3 325 5 2 0 0 23 a15.gif 0 0
1 0 3 326 5 1 0 0 118 a10.gif 0 0
1 0 3 327 5 0 0 1 1813 a02.gif 0 1
1 0 3 328 5 2 2 1 214 b06.gif 0 1
1 0 3 329 5 1 1 1 184 e08.gif 0 1
1 0 3 330 5 1 1 1 214 e02.gif 0 1
1 0 3 331 5 2 2 1 398 b12.gif 0 0
1 0 3 332 5 1 2 0 199 b11.gif 0 0
1 0 3 333 5 2 2 1 225 b03.gif 0 1
1 0 3 334 5 2 2 1 935 b07.gif 0 1
1 0 3 335 5 2 1 0 378 e11.gif 0 0
1 0 1 336 1 0 2 0 2530 d05.gif 1 X
1 0 1 337 1 2 2 1 411 d05.gif 1 X
1 0 1 338 1 1 2 0 424 d06.gif 1 X
1 0 1 339 1 2 2 1 305 d02.gif 1 X
1 0 1 340 1 1 0 0 234 c02.gif 1 X
1 0 1 341 1 1 0 0 329 c07.gif 1 X
1 0 1 342 1 0 0 1 130 c06.gif 1 X
1 0 1 343 1 2 0 0 123 c08.gif 1 X
1 0 1 344 1 1 2 0 82 d03.gif 1 X
1 0 1 345 1 2 2 1 184 d03.gif 1 X
1 0 1 346 1 1 1 1 186 f05.gif 1 X
1 0 1 347 1 0 1 0 1506 f08.gif 1 X
1 0 1 348 1 1 1 1 1513 f08.gif 1 X
1 0 1 349 1 0 0 1 99 c04.gif 1 X
1 0 1 350 1 1 1 1 129 f02.gif 1 X
1 0 1 351 1 2 1 0 9 f08.gif 1 X
1 0 1 352 1 0 1 0 1440 f05.gif 1 X
1 0 1 353 1 2 1 0 283 f05.gif 1 X
1 0 1 354 1 1 1 1 521 f07.gif 1 X
1 0 1 355 1 0 1 0 609 f02.gif 1 X
1 0 1 356 1 1 1 1 1282 f06.gif 1 X
1 0 1 357 1 0 1 0 195 f03.gif 1 X
1 0 1 358 1 2 2 1 43 d02.gif 1 X
1 0 1 359 1 0 2 0 125 d08.gif 1 X
1 0 1 360 1 1 0 0 154 c05.gif 1 X
1 0 1 361 1 0 0 1 170 c05.gif 1 X
1 0 1 362 1 1 0 0 22 c04.gif 1 X
1 0 1 363 1 0 0 1 821 c03.gif 1 X
1 0 1 364 1 0 0 1 520 c01.gif 1 X
1 0 1 365 1 0 0 1 74 c01.gif 1 X
1 0 1 366 1 1 0 0 274 c04.gif 1 X
1 0 1 367 1 2 2 1 176 d02.gif 1 X
1 0 1 368 1 0 0 1 178 c06.gif 1 X
1 0 1 369 1 1 1 1 915 f04.gif 1 X
1 0 1 370 1 0 1 0 1 f07.gif 1 X
1 0 1 371 1 0 1 0 780 f03.gif 1 X
1 0 1 372 1 1 2 0 385 d01.gif 1 X
1 0 1 373 1 2 2 1 81 d08.gif 1 X
1 0 1 374 1 0 2 0 553 d07.gif 1 X
1 0 1 375 1 1 2 0 554 d06.gif 1 X
1 0 1 376 1 2 2 1 73 d06.gif 1 X
1 0 1 377 1 1 2 0 122 d04.gif 1 X
1 0 1 378 1 1 1 1 256 f01.gif 1 X
1 0 1 379 1 1 1 1 11 f01.gif 1 X
1 0 1 380 1 1 0 0 343 c04.gif 1 X
1 0 1 381 1 0 1 0 121 f04.gif 1 X
1 0 1 382 1 1 1 1 115 f03.gif 1 X
1 0 1 383 1 1 1 1 34 f05.gif 1 X
1 0 1 384 1 0 1 0 931 f06.gif 1 X
1 0 1 385 1 1 1 1 172 f06.gif 1 X
1 0 1 386 1 1 1 1 387 f02.gif 1 X
1 0 1 387 1 1 1 1 210 f08.gif 1 X
1 0 1 388 1 1 2 0 1251 d03.gif 1 X
1 0 1 389 1 2 2 1 153 d01.gif 1 X
1 0 1 390 1 2 2 1 50 d04.gif 1 X
1 0 1 391 1 2 2 1 108 d06.gif 1 X
1 0 1 392 1 2 2 1 121 d02.gif 1 X
1 0 1 393 1 2 2 1 193 d01.gif 1 X
1 0 1 394 1 2 1 0 362 f01.gif 1 X
1 0 1 395 1 1 2 0 1114 d04.gif 1 X
1 0 1 396 1 2 2 1 146 d07.gif 1 X
1 0 1 397 1 2 0 0 1227 c03.gif 1 X
1 0 1 398 1 0 0 1 1505 c06.gif 1 X
1 0 1 399 1 1 0 0 1018 c05.gif 1 X
1 0 1 400 1 1 0 0 193 c02.gif 1 X
1 0 1 401 1 1 0 0 11 c02.gif 1 X
1 0 1 402 1 0 0 1 249 c08.gif 1 X
1 0 1 403 1 0 0 1 444 c03.gif 1 X
1 0 1 404 1 0 0 1 171 c08.gif 1 X
1 0 1 405 1 1 0 0 331 c01.gif 1 X
1 0 1 406 1 1 0 0 10 c02.gif 1 X
1 0 1 407 1 0 0 1 122 c05.gif 1 X
1 0 1 408 2 0 2 0 382 d05.gif 1 X
1 0 1 409 2 2 2 1 81 d05.gif 1 X
1 0 1 410 2 2 2 1 882 d06.gif 1 X
1 0 1 411 2 2 2 1 35 d02.gif 1 X
1 0 1 412 2 0 0 1 578 c02.gif 1 X
1 0 1 413 2 0 0 1 93 c07.gif 1 X
1 0 1 414 2 0 0 1 242 c06.gif 1 X
1 0 1 415 2 0 0 1 90 c08.gif 1 X
1 0 1 416 2 1 2 0 402 d03.gif 1 X
1 0 1 417 2 2 2 1 49 d03.gif 1 X
1 0 1 418 2 2 1 0 496 f05.gif 1 X
1 0 1 419 2 1 1 1 35 f08.gif 1 X
1 0 1 420 2 1 1 1 131 f08.gif 1 X
1 0 1 421 2 1 0 0 26 c04.gif 1 X
1 0 1 422 2 2 1 0 1106 f02.gif 1 X
1 0 1 423 2 1 1 1 9 f08.gif 1 X
1 0 1 424 2 1 1 1 240 f05.gif 1 X
1 0 1 425 2 1 1 1 89 f05.gif 1 X
1 0 1 426 2 1 1 1 145 f07.gif 1 X
1 0 1 427 2 1 1 1 130 f02.gif 1 X
1 0 1 428 2 1 1 1 89 f06.gif 1 X
1 0 1 429 2 1 1 1 82 f03.gif 1 X
1 0 1 430 2 2 2 1 9 d02.gif 1 X
1 0 1 431 2 2 2 1 390 d08.gif 1 X
1 0 1 432 2 0 0 1 658 c05.gif 1 X
1 0 1 433 2 0 0 1 298 c05.gif 1 X
1 0 1 434 2 0 0 1 91 c04.gif 1 X
1 0 1 435 2 0 0 1 113 c03.gif 1 X
1 0 1 436 2 0 0 1 67 c01.gif 1 X
1 0 1 437 2 0 0 1 114 c01.gif 1 X
1 0 1 438 2 0 0 1 43 c04.gif 1 X
1 0 1 439 2 2 2 1 131 d02.gif 1 X
1 0 1 440 2 0 0 1 58 c06.gif 1 X
1 0 1 441 2 1 1 1 386 f04.gif 1 X
1 0 1 442 2 1 1 1 329 f07.gif 1 X
1 0 1 443 2 1 1 1 26 f03.gif 1 X
1 0 1 444 2 0 2 0 586 d01.gif 1 X
1 0 1 445 2 2 2 1 90 d08.gif 1 X
1 0 1 446 2 2 2 1 64 d07.gif 1 X
1 0 1 447 2 2 2 1 163 d06.gif 1 X
1 0 1 448 2 2 2 1 145 d06.gif 1 X
1 0 1 449 2 0 2 0 601 d04.gif 1 X
1 0 1 450 2 1 1 1 526 f01.gif 1 X
1 0 1 451 2 1 1 1 226 f01.gif 1 X
1 0 1 452 2 0 0 1 658 c04.gif 1 X
1 0 1 453 2 1 1 1 20 f04.gif 1 X
1 0 1 454 2 1 1 1 77 f03.gif 1 X
1 0 1 455 2 1 1 1 75 f05.gif 1 X
1 0 1 456 2 1 1 1 218 f06.gif 1 X
1 0 1 457 2 1 1 1 194 f06.gif 1 X
1 0 1 458 2 1 1 1 114 f02.gif 1 X
1 0 1 459 2 1 1 1 137 f08.gif 1 X
1 0 1 460 2 2 2 1 1747 d03.gif 1 X
1 0 1 461 2 0 2 0 218 d01.gif 1 X
1 0 1 462 2 2 2 1 569 d04.gif 1 X
1 0 1 463 2 2 2 1 57 d06.gif 1 X
1 0 1 464 2 2 2 1 82 d02.gif 1 X
1 0 1 465 2 0 2 0 216 d01.gif 1 X
1 0 1 466 2 1 1 1 34 f01.gif 1 X
1 0 1 467 2 2 2 1 617 d04.gif 1 X
1 0 1 468 2 2 2 1 171 d07.gif 1 X
1 0 1 469 2 0 0 1 35 c03.gif 1 X
1 0 1 470 2 0 0 1 258 c06.gif 1 X
1 0 1 471 2 0 0 1 116 c05.gif 1 X
1 0 1 472 2 0 0 1 155 c02.gif 1 X
1 0 1 473 2 0 0 1 115 c02.gif 1 X
1 0 1 474 2 0 0 1 114 c08.gif 1 X
1 0 1 475 2 0 0 1 200 c03.gif 1 X
1 0 1 476 2 0 0 1 67 c08.gif 1 X
1 0 1 477 2 0 0 1 419 c01.gif 1 X
1 0 1 478 2 0 0 1 65 c02.gif 1 X
1 0 1 479 2 0 0 1 300 c05.gif 1 X
1 0 1 480 3 2 2 1 3015 d05.gif 1 X
1 0 1 481 3 2 2 1 195 d05.gif 1 X
1 0 1 482 3 2 2 1 99 d06.gif 1 X
1 0 1 483 3 2 2 1 18 d02.gif 1 X
1 0 1 484 3 2 0 0 576 c02.gif 1 X
1 0 1 485 3 0 0 1 88 c07.gif 1 X
1 0 1 486 3 0 0 1 162 c06.gif 1 X
1 0 1 487 3 0 0 1 193 c08.gif 1 X
1 0 1 488 3 2 2 1 832 d03.gif 1 X
1 0 1 489 3 2 2 1 146 d03.gif 1 X
1 0 1 490 3 1 1 1 338 f05.gif 1 X
1 0 1 491 3 1 1 1 139 f08.gif 1 X
1 0 1 492 3 1 1 1 106 f08.gif 1 X
1 0 1 493 3 0 0 1 305 c04.gif 1 X
1 0 1 494 3 1 1 1 75 f02.gif 1 X
1 0 1 495 3 1 1 1 80 f08.gif 1 X
1 0 1 496 3 1 1 1 265 f05.gif 1 X
1 0 1 497 3 1 1 1 34 f05.gif 1 X
1 0 1 498 3 1 1 1 307 f07.gif 1 X
1 0 1 499 3 1 1 1 90 f02.gif 1 X
1 0 1 500 3 1 1 1 194 f06.gif 1 X
1 0 1 501 3 1 1 1 378 f03.gif 1 X
1 0 1 502 3 2 2 1 50 d02.gif 1 X
1 0 1 503 3 2 2 1 57 d08.gif 1 X
1 0 1 504 3 0 0 1 528 c05.gif 1 X
1 0 1 505 3 0 0 1 193 c05.gif 1 X
1 0 1 506 3 0 0 1 98 c04.gif 1 X
1 0 1 507 3 0 0 1 115 c03.gif 1 X
1 0 1 508 3 0 0 1 138 c01.gif 1 X
1 0 1 509 3 0 0 1 258 c01.gif 1 X
1 0 1 510 3 0 0 1 145 c04.gif 1 X
1 0 1 511 3 2 2 1 74 d02.gif 1 X
1 0 1 512 3 0 0 1 50 c06.gif 1 X
1 0 1 513 3 1 1 1 104 f04.gif 1 X
1 0 1 514 3 1 1 1 35 f07.gif 1 X
1 0 1 515 3 1 1 1 313 f03.gif 1 X
1 0 1 516 3 2 2 1 290 d01.gif 1 X
1 0 1 517 3 2 2 1 82 d08.gif 1 X
1 0 1 518 3 2 2 1 137 d07.gif 1 X
1 0 1 519 3 2 2 1 177 d06.gif 1 X
1 0 1 520 3 2 2 1 211 d06.gif 1 X
1 0 1 521 3 2 2 1 292 d04.gif 1 X
1 0 1 522 3 1 1 1 65 f01.gif 1 X
1 0 1 523 3 1 1 1 90 f01.gif 1 X
1 0 1 524 3 2 0 0 260 c04.gif 1 X
1 0 1 525 3 1 1 1 74 f04.gif 1 X
1 0 1 526 3 1 1 1 92 f03.gif 1 X
1 0 1 527 3 1 1 1 107 f05.gif 1 X
1 0 1 528 3 1 1 1 81 f06.gif 1 X
1 0 1 529 3 1 1 1 17 f06.gif 1 X
1 0 1 530 3 1 1 1 201 f02.gif 1 X
1 0 1 531 3 1 1 1 514 f08.gif 1 X
1 0 1 532 3 2 2 1 798 d03.gif 1 X
1 0 1 533 3 2 2 1 1268 d01.gif 1 X
1 0 1 534 3 2 2 1 448 d04.gif 1 X
1 0 1 535 3 2 2 1 18 d06.gif 1 X
1 0 1 536 3 2 2 1 73 d02.gif 1 X
1 0 1 537 3 2 2 1 97 d01.gif 1 X
1 0 1 538 3 1 1 1 978 f01.gif 1 X
1 0 1 539 3 2 2 1 250 d04.gif 1 X
1 0 1 540 3 2 2 1 81 d07.gif 1 X
1 0 1 541 3 0 0 1 116 c03.gif 1 X
1 0 1 542 3 0 0 1 234 c06.gif 1 X
1 0 1 543 3 0 0 1 164 c05.gif 1 X
1 0 1 544 3 2 0 0 602 c02.gif 1 X
1 0 1 545 3 0 0 1 177 c02.gif 1 X
1 0 1 546 3 0 0 1 34 c08.gif 1 X
1 0 1 547 3 0 0 1 243 c03.gif 1 X
1 0 1 548 3 0 0 1 100 c08.gif 1 X
1 0 1 549 3 0 0 1 203 c01.gif 1 X
1 0 1 550 3 0 0 1 42 c02.gif 1 X
1 0 1 551 3 0 0 1 45 c05.gif 1 X
1 0 1 552 4 2 2 1 2575 d05.gif 1 X
1 0 1 553 4 2 2 1 171 d05.gif 1 X
1 0 1 554 4 2 2 1 282 d06.gif 1 X
1 0 1 555 4 2 2 1 139 d02.gif 1 X
1 0 1 556 4 0 0 1 77 c02.gif 1 X
1 0 1 557 4 0 0 1 234 c07.gif 1 X
1 0 1 558 4 0 0 1 275 c06.gif 1 X
1 0 1 559 4 0 0 1 123 c08.gif 1 X
1 0 1 560 4 2 2 1 1188 d03.gif 1 X
1 0 1 561 4 2 2 1 90 d03.gif 1 X
1 0 1 562 4 1 1 1 164 f05.gif 1 X
1 0 1 563 4 1 1 1 107 f08.gif 1 X
1 0 1 564 4 1 1 1 371 f08.gif 1 X
1 0 1 565 4 0 0 1 292 c04.gif 1 X
1 0 1 566 4 1 1 1 187 f02.gif 1 X
1 0 1 567 4 1 1 1 162 f08.gif 1 X
1 0 1 568 4 1 1 1 217 f05.gif 1 X
1 0 1 569 4 1 1 1 39 f05.gif 1 X
1 0 1 570 4 1 1 1 242 f07.gif 1 X
1 0 1 571 4 1 1 1 104 f02.gif 1 X
1 0 1 572 4 1 1 1 42 f06.gif 1 X
1 0 1 573 4 1 1 1 152 f03.gif 1 X
1 0 1 574 4 2 2 1 35 d02.gif 1 X
1 0 1 575 4 2 2 1 68 d08.gif 1 X
1 0 1 576 4 0 0 1 178 c05.gif 1 X
1 0 1 577 4 0 0 1 361 c05.gif 1 X
1 0 1 578 4 0 0 1 35 c04.gif 1 X
1 0 1 579 4 0 0 1 258 c03.gif 1 X
1 0 1 580 4 0 0 1 91 c01.gif 1 X
1 0 1 581 4 0 0 1 82 c01.gif 1 X
1 0 1 582 4 0 0 1 92 c04.gif 1 X
1 0 1 583 4 2 2 1 59 d02.gif 1 X
1 0 1 584 4 0 0 1 42 c06.gif 1 X
1 0 1 585 4 1 1 1 74 f04.gif 1 X
1 0 1 586 4 1 1 1 178 f07.gif 1 X
1 0 1 587 4 1 1 1 168 f03.gif 1 X
1 0 1 588 4 2 2 1 243 d01.gif 1 X
1 0 1 589 4 2 2 1 97 d08.gif 1 X
1 0 1 590 4 2 2 1 154 d07.gif 1 X
1 0 1 591 4 2 2 1 324 d06.gif 1 X
1 0 1 592 4 2 2 1 17 d06.gif 1 X
1 0 1 593 4 2 2 1 1554 d04.gif 1 X
1 0 1 594 4 1 1 1 178 f01.gif 1 X
1 0 1 595 4 1 1 1 441 f01.gif 1 X
1 0 1 596 4 0 0 1 186 c04.gif 1 X
1 0 1 597 4 1 1 1 185 f04.gif 1 X
1 0 1 598 4 1 1 1 241 f03.gif 1 X
1 0 1 599 4 1 1 1 146 f05.gif 1 X
1 0 1 600 4 1 1 1 568 f06.gif 1 X
1 0 1 601 4 1 1 1 145 f06.gif 1 X
1 0 1 602 4 1 1 1 130 f02.gif 1 X
1 0 1 603 4 1 1 1 201 f08.gif 1 X
1 0 1 604 4 2 2 1 225 d03.gif 1 X
1 0 1 605 4 2 2 1 42 d01.gif 1 X
1 0 1 606 4 2 2 1 27 d04.gif 1 X
1 0 1 607 4 2 2 1 75 d06.gif 1 X
1 0 1 608 4 2 2 1 52 d02.gif 1 X
1 0 1 609 4 2 2 1 707 d01.gif 1 X
1 0 1 610 4 1 1 1 740 f01.gif 1 X
1 0 1 611 4 2 2 1 697 d04.gif 1 X
1 0 1 612 4 2 2 1 132 d07.gif 1 X
1 0 1 613 4 0 0 1 91 c03.gif 1 X
1 0 1 614 4 0 0 1 67 c06.gif 1 X
1 0 1 615 4 0 0 1 99 c05.gif 1 X
1 0 1 616 4 0 0 1 77 c02.gif 1 X
1 0 1 617 4 0 0 1 108 c02.gif 1 X
1 0 1 618 4 0 0 1 345 c08.gif 1 X
1 0 1 619 4 0 0 1 139 c03.gif 1 X
1 0 1 620 4 0 0 1 282 c08.gif 1 X
1 0 1 621 4 0 0 1 146 c01.gif 1 X
1 0 1 622 4 0 0 1 875 c02.gif 1 X
1 0 1 623 4 0 0 1 211 c05.gif 1 X
10 1 1 0 1 2 0 0 3649 c03.gif 1 X 
10 1 1 1 1 2 1 0 1446 a01.gif 1 X 
10 1 1 2 1 1 1 1 2542 a05.gif 1 X 
10 1 1 3 1 1 1 1 414 a03.gif 1 X 
10 1 1 4 1 1 1 1 325 a07.gif 1 X 
10 1 1 5 1 1 1 1 328 a07.gif 1 X 
10 1 1 6 1 2 2 1 399 e04.gif 1 X 
10 1 1 7 1 1 2 0 15 e03.gif 1 X 
10 1 1 8 1 1 2 0 899 e04.gif 1 X 
10 1 1 9 1 1 2 0 2158 e06.gif 1 X 
10 1 1 10 1 2 2 1 653 e03.gif 1 X 
10 1 1 11 1 2 2 1 1302 e04.gif 1 X 
10 1 1 12 1 2 2 1 94 e01.gif 1 X 
10 1 1 13 1 0 2 0 166 e02.gif 1 X 
10 1 1 14 1 1 2 0 246 e07.gif 1 X 
10 1 1 15 1 2 2 1 150 e02.gif 1 X 
10 1 1 16 1 2 2 1 719 e06.gif 1 X 
10 1 1 17 1 2 1 0 54 a06.gif 1 X 
10 1 1 18 1 1 1 1 253 a06.gif 1 X 
10 1 1 19 1 2 0 0 158 c01.gif 1 X 
10 1 1 20 1 0 0 1 213 c02.gif 1 X 
10 1 1 21 1 0 0 1 135 c02.gif 1 X 
10 1 1 22 1 1 0 0 389 c06.gif 1 X 
10 1 1 23 1 0 0 1 805 c03.gif 1 X 
10 1 1 24 1 0 0 1 38 c08.gif 1 X 
10 1 1 25 1 0 0 1 413 c05.gif 1 X 
10 1 1 26 1 0 0 1 638 c03.gif 1 X 
10 1 1 27 1 0 0 1 222 c07.gif 1 X 
10 1 1 28 1 0 0 1 494 c08.gif 1 X 
10 1 1 29 1 0 0 1 309 c05.gif 1 X 
10 1 1 30 1 0 0 1 278 c02.gif 1 X 
10 1 1 31 1 0 0 1 406 c08.gif 1 X 
10 1 1 32 1 0 0 1 423 c05.gif 1 X 
10 1 1 33 1 0 2 0 190 e01.gif 1 X 
10 1 1 34 1 2 2 1 437 e07.gif 1 X 
10 1 1 35 1 2 2 1 39 e05.gif 1 X 
10 1 1 36 1 2 2 1 151 e03.gif 1 X 
10 1 1 37 1 2 2 1 607 e08.gif 1 X 
10 1 1 38 1 2 2 1 438 e08.gif 1 X 
10 1 1 39 1 2 2 1 277 e06.gif 1 X 
10 1 1 40 1 2 2 1 471 e07.gif 1 X 
10 1 1 41 1 2 1 0 359 a08.gif 1 X 
10 1 1 42 1 1 1 1 284 a03.gif 1 X 
10 1 1 43 1 1 2 0 1327 e03.gif 1 X 
10 1 1 44 1 2 1 0 430 a01.gif 1 X 
10 1 1 45 1 2 1 0 581 a03.gif 1 X 
10 1 1 46 1 1 1 1 398 a08.gif 1 X 
10 1 1 47 1 1 1 1 566 a02.gif 1 X 
10 1 1 48 1 1 1 1 302 a01.gif 1 X 
10 1 1 49 1 1 1 1 286 a04.gif 1 X 
10 1 1 50 1 1 1 1 997 a04.gif 1 X 
10 1 1 51 1 1 1 1 534 a05.gif 1 X 
10 1 1 52 1 1 1 1 645 a06.gif 1 X 
10 1 1 53 1 1 1 1 262 a08.gif 1 X 
10 1 1 54 1 1 1 1 63 a03.gif 1 X 
10 1 1 55 1 1 1 1 366 a05.gif 1 X 
10 1 1 56 1 1 1 1 495 a06.gif 1 X 
10 1 1 57 1 1 1 1 236 a05.gif 1 X 
10 1 1 58 1 1 1 1 263 a02.gif 1 X 
10 1 1 59 1 1 1 1 254 a04.gif 1 X 
10 1 1 60 1 1 2 0 301 e04.gif 1 X 
10 1 1 61 1 2 0 0 335 c08.gif 1 X 
10 1 1 62 1 0 0 1 413 c03.gif 1 X 
10 1 1 63 1 0 0 1 198 c07.gif 1 X 
10 1 1 64 1 2 2 1 309 e02.gif 1 X 
10 1 1 65 1 2 0 0 367 c04.gif 1 X 
10 1 1 66 1 2 0 0 550 c02.gif 1 X 
10 1 1 67 1 0 0 1 381 c04.gif 1 X 
10 1 1 68 1 0 0 1 343 c01.gif 1 X 
10 1 1 69 1 0 0 1 255 c05.gif 1 X 
10 1 1 70 1 0 0 1 158 c01.gif 1 X 
10 1 1 71 1 0 0 1 286 c04.gif 1 X 
10 1 1 72 2 0 0 1 3482 c03.gif 1 X 
10 1 1 73 2 0 1 0 415 a01.gif 1 X 
10 1 1 74 2 1 1 1 286 a05.gif 1 X 
10 1 1 75 2 0 1 0 85 a03.gif 1 X 
10 1 1 76 2 1 1 1 316 a07.gif 1 X 
10 1 1 77 2 1 1 1 230 a07.gif 1 X 
10 1 1 78 2 1 2 0 231 e04.gif 1 X 
10 1 1 79 2 1 2 0 733 e03.gif 1 X 
10 1 1 80 2 2 2 1 261 e04.gif 1 X 
10 1 1 81 2 2 2 1 294 e06.gif 1 X 
10 1 1 82 2 2 2 1 213 e03.gif 1 X 
10 1 1 83 2 2 2 1 174 e04.gif 1 X 
10 1 1 84 2 2 2 1 246 e01.gif 1 X 
10 1 1 85 2 2 2 1 245 e02.gif 1 X 
10 1 1 86 2 2 2 1 134 e07.gif 1 X 
10 1 1 87 2 2 2 1 254 e02.gif 1 X 
10 1 1 88 2 2 2 1 734 e06.gif 1 X 
10 1 1 89 2 2 1 0 552 a06.gif 1 X 
10 1 1 90 2 1 1 1 358 a06.gif 1 X 
10 1 1 91 2 1 0 0 638 c01.gif 1 X 
10 1 1 92 2 0 0 1 327 c02.gif 1 X 
10 1 1 93 2 0 0 1 286 c02.gif 1 X 
10 1 1 94 2 1 0 0 334 c06.gif 1 X 
10 1 1 95 2 0 0 1 285 c03.gif 1 X 
10 1 1 96 2 0 0 1 382 c08.gif 1 X 
10 1 1 97 2 0 0 1 469 c05.gif 1 X 
10 1 1 98 2 0 0 1 472 c03.gif 1 X 
10 1 1 99 2 0 0 1 286 c07.gif 1 X 
10 1 1 100 2 0 0 1 342 c08.gif 1 X 
10 1 1 101 2 0 0 1 310 c05.gif 1 X 
10 1 1 102 2 0 0 1 342 c02.gif 1 X 
10 1 1 103 2 0 0 1 269 c08.gif 1 X 
10 1 1 104 2 0 0 1 230 c05.gif 1 X 
10 1 1 105 2 0 2 0 254 e01.gif 1 X 
10 1 1 106 2 0 2 0 1189 e07.gif 1 X 
10 1 1 107 2 2 2 1 253 e05.gif 1 X 
10 1 1 108 2 2 2 1 333 e03.gif 1 X 
10 1 1 109 2 2 2 1 230 e08.gif 1 X 
10 1 1 110 2 2 2 1 309 e08.gif 1 X 
10 1 1 111 2 2 2 1 319 e06.gif 1 X 
10 1 1 112 2 2 2 1 278 e07.gif 1 X 
10 1 1 113 2 2 1 0 318 a08.gif 1 X 
10 1 1 114 2 1 1 1 198 a03.gif 1 X 
10 1 1 115 2 1 2 0 326 e03.gif 1 X 
10 1 1 116 2 2 1 0 951 a01.gif 1 X 
10 1 1 117 2 2 1 0 292 a03.gif 1 X 
10 1 1 118 2 1 1 1 469 a08.gif 1 X 
10 1 1 119 2 1 1 1 613 a02.gif 1 X 
10 1 1 120 2 1 1 1 318 a01.gif 1 X 
10 1 1 121 2 1 1 1 278 a04.gif 1 X 
10 1 1 122 2 1 1 1 254 a04.gif 1 X 
10 1 1 123 2 1 1 1 278 a05.gif 1 X 
10 1 1 124 2 1 1 1 246 a06.gif 1 X 
10 1 1 125 2 1 1 1 439 a08.gif 1 X 
10 1 1 126 2 1 1 1 222 a03.gif 1 X 
10 1 1 127 2 1 1 1 222 a05.gif 1 X 
10 1 1 128 2 1 1 1 246 a06.gif 1 X 
10 1 1 129 2 1 1 1 167 a05.gif 1 X 
10 1 1 130 2 1 1 1 264 a02.gif 1 X 
10 1 1 131 2 1 1 1 236 a04.gif 1 X 
10 1 1 132 2 1 2 0 214 e04.gif 1 X 
10 1 1 133 2 1 0 0 413 c08.gif 1 X 
10 1 1 134 2 0 0 1 205 c03.gif 1 X 
10 1 1 135 2 0 0 1 231 c07.gif 1 X 
10 1 1 136 2 0 2 0 261 e02.gif 1 X 
10 1 1 137 2 2 0 0 254 c04.gif 1 X 
10 1 1 138 2 0 0 1 499 c02.gif 1 X 
10 1 1 139 2 0 0 1 263 c04.gif 1 X 
10 1 1 140 2 0 0 1 134 c01.gif 1 X 
10 1 1 141 2 0 0 1 181 c05.gif 1 X 
10 1 1 142 2 0 0 1 111 c01.gif 1 X 
10 1 1 143 2 0 0 1 158 c04.gif 1 X 
10 1 1 144 3 0 0 1 8649 c03.gif 1 X 
10 1 1 145 3 0 1 0 855 a01.gif 1 X 
10 1 1 146 3 1 1 1 246 a05.gif 1 X 
10 1 1 147 3 0 1 0 382 a03.gif 1 X 
10 1 1 148 3 1 1 1 197 a07.gif 1 X 
10 1 1 149 3 1 1 1 254 a07.gif 1 X 
10 1 1 150 3 1 2 0 238 e04.gif 1 X 
10 1 1 151 3 1 2 0 206 e03.gif 1 X 
10 1 1 152 3 2 2 1 645 e04.gif 1 X 
10 1 1 153 3 2 2 1 286 e06.gif 1 X 
10 1 1 154 3 2 2 1 221 e03.gif 1 X 
10 1 1 155 3 2 2 1 276 e04.gif 1 X 
10 1 1 156 3 2 2 1 343 e01.gif 1 X 
10 1 1 157 3 2 2 1 102 e02.gif 1 X 
10 1 1 158 3 2 2 1 237 e07.gif 1 X 
10 1 1 159 3 2 2 1 214 e02.gif 1 X 
10 1 1 160 3 2 2 1 21 e06.gif 1 X 
10 1 1 161 3 2 1 0 286 a06.gif 1 X 
10 1 1 162 3 1 1 1 222 a06.gif 1 X 
10 1 1 163 3 2 0 0 270 c01.gif 1 X 
10 1 1 164 3 0 0 1 286 c02.gif 1 X 
10 1 1 165 3 0 0 1 526 c02.gif 1 X 
10 1 1 166 3 1 0 0 294 c06.gif 1 X 
10 1 1 167 3 0 0 1 222 c03.gif 1 X 
10 1 1 168 3 0 0 1 254 c08.gif 1 X 
10 1 1 169 3 0 0 1 478 c05.gif 1 X 
10 1 1 170 3 0 0 1 1214 c03.gif 1 X 
10 1 1 171 3 0 0 1 550 c07.gif 1 X 
10 1 1 172 3 0 0 1 543 c08.gif 1 X 
10 1 1 173 3 0 0 1 486 c05.gif 1 X 
10 1 1 174 3 0 0 1 1414 c02.gif 1 X 
10 1 1 175 3 0 0 1 596 c08.gif 1 X 
10 1 1 176 3 0 0 1 750 c05.gif 1 X 
10 1 1 177 3 0 2 0 302 e01.gif 1 X 
10 1 1 178 3 0 2 0 942 e07.gif 1 X 
10 1 1 179 3 2 2 1 165 e05.gif 1 X 
10 1 1 180 3 2 2 1 238 e03.gif 1 X 
10 1 1 181 3 2 2 1 318 e08.gif 1 X 
10 1 1 182 3 2 2 1 311 e08.gif 1 X 
10 1 1 183 3 2 2 1 285 e06.gif 1 X 
10 1 1 184 3 2 2 1 910 e07.gif 1 X 
10 1 1 185 3 2 1 0 278 a08.gif 1 X 
10 1 1 186 3 1 1 1 269 a03.gif 1 X 
10 1 1 187 3 1 2 0 309 e03.gif 1 X 
10 1 1 188 3 1 1 1 557 a01.gif 1 X 
10 1 1 189 3 2 1 0 478 a03.gif 1 X 
10 1 1 190 3 1 1 1 195 a08.gif 1 X 
10 1 1 191 3 1 1 1 271 a02.gif 1 X 
10 1 1 192 3 1 1 1 134 a01.gif 1 X 
10 1 1 193 3 1 1 1 405 a04.gif 1 X 
10 1 1 194 3 1 1 1 295 a04.gif 1 X 
10 1 1 195 3 1 1 1 270 a05.gif 1 X 
10 1 1 196 3 1 1 1 231 a06.gif 1 X 
10 1 1 197 3 1 1 1 413 a08.gif 1 X 
10 1 1 198 3 1 1 1 679 a03.gif 1 X 
10 1 1 199 3 1 1 1 774 a05.gif 1 X 
10 1 1 200 3 1 1 1 262 a06.gif 1 X 
10 1 1 201 3 1 1 1 366 a05.gif 1 X 
10 1 1 202 3 1 1 1 422 a02.gif 1 X 
10 1 1 203 3 1 1 1 432 a04.gif 1 X 
10 1 1 204 3 1 2 0 653 e04.gif 1 X 
10 1 1 205 3 2 0 0 463 c08.gif 1 X 
10 1 1 206 3 2 0 0 669 c03.gif 1 X 
10 1 1 207 3 0 0 1 254 c07.gif 1 X 
10 1 1 208 3 0 2 0 302 e02.gif 1 X 
10 1 1 209 3 2 0 0 197 c04.gif 1 X 
10 1 1 210 3 0 0 1 806 c02.gif 1 X 
10 1 1 211 3 0 0 1 308 c04.gif 1 X 
10 1 1 212 3 0 0 1 255 c01.gif 1 X 
10 1 1 213 3 0 0 1 238 c05.gif 1 X 
10 1 1 214 3 0 0 1 261 c01.gif 1 X 
10 1 1 215 3 0 0 1 240 c04.gif 1 X 
10 1 1 216 4 0 0 1 1410 c03.gif 1 X 
10 1 1 217 4 0 1 0 837 a01.gif 1 X 
10 1 1 218 4 1 1 1 303 a05.gif 1 X 
10 1 1 219 4 2 1 0 614 a03.gif 1 X 
10 1 1 220 4 1 1 1 308 a07.gif 1 X 
10 1 1 221 4 1 1 1 351 a07.gif 1 X 
10 1 1 222 4 1 2 0 342 e04.gif 1 X 
10 1 1 223 4 1 2 0 742 e03.gif 1 X 
10 1 1 224 4 2 2 1 246 e04.gif 1 X 
10 1 1 225 4 2 2 1 357 e06.gif 1 X 
10 1 1 226 4 2 2 1 302 e03.gif 1 X 
10 1 1 227 4 2 2 1 591 e04.gif 1 X 
10 1 1 228 4 2 2 1 358 e01.gif 1 X 
10 1 1 229 4 2 2 1 237 e02.gif 1 X 
10 1 1 230 4 2 2 1 165 e07.gif 1 X 
10 1 1 231 4 2 2 1 303 e02.gif 1 X 
10 1 1 232 4 2 2 1 366 e06.gif 1 X 
10 1 1 233 4 2 1 0 102 a06.gif 1 X 
10 1 1 234 4 1 1 1 230 a06.gif 1 X 
10 1 1 235 4 2 0 0 263 c01.gif 1 X 
10 1 1 236 4 0 0 1 316 c02.gif 1 X 
10 1 1 237 4 0 0 1 286 c02.gif 1 X 
10 1 1 238 4 0 0 1 271 c06.gif 1 X 
10 1 1 239 4 0 0 1 405 c03.gif 1 X 
10 1 1 240 4 0 0 1 383 c08.gif 1 X 
10 1 1 241 4 0 0 1 798 c05.gif 1 X 
10 1 1 242 4 0 0 1 471 c03.gif 1 X 
10 1 1 243 4 0 0 1 245 c07.gif 1 X 
10 1 1 244 4 0 0 1 1326 c08.gif 1 X 
10 1 1 245 4 0 0 1 494 c05.gif 1 X 
10 1 1 246 4 0 0 1 278 c02.gif 1 X 
10 1 1 247 4 0 0 1 446 c08.gif 1 X 
10 1 1 248 4 0 0 1 413 c05.gif 1 X 
10 1 1 249 4 0 2 0 1430 e01.gif 1 X 
10 1 1 250 4 2 2 1 548 e07.gif 1 X 
10 1 1 251 4 1 2 0 527 e05.gif 1 X 
10 1 1 252 4 2 2 1 165 e03.gif 1 X 
10 1 1 253 4 2 2 1 222 e08.gif 1 X 
10 1 1 254 4 2 2 1 263 e08.gif 1 X 
10 1 1 255 4 2 2 1 317 e06.gif 1 X 
10 1 1 256 4 2 2 1 342 e07.gif 1 X 
10 1 1 257 4 2 1 0 350 a08.gif 1 X 
10 1 1 258 4 1 1 1 413 a03.gif 1 X 
10 1 1 259 4 1 2 0 376 e03.gif 1 X 
10 1 1 260 4 0 1 0 860 a01.gif 1 X 
10 1 1 261 4 2 1 0 589 a03.gif 1 X 
10 1 1 262 4 1 1 1 118 a08.gif 1 X 
10 1 1 263 4 1 1 1 781 a02.gif 1 X 
10 1 1 264 4 1 1 1 327 a01.gif 1 X 
10 1 1 265 4 1 1 1 686 a04.gif 1 X 
10 1 1 266 4 1 1 1 413 a04.gif 1 X 
10 1 1 267 4 1 1 1 302 a05.gif 1 X 
10 1 1 268 4 1 1 1 253 a06.gif 1 X 
10 1 1 269 4 1 1 1 1055 a08.gif 1 X 
10 1 1 270 4 1 1 1 606 a03.gif 1 X 
10 1 1 271 4 1 1 1 302 a05.gif 1 X 
10 1 1 272 4 1 1 1 174 a06.gif 1 X 
10 1 1 273 4 1 1 1 213 a05.gif 1 X 
10 1 1 274 4 1 1 1 240 a02.gif 1 X 
10 1 1 275 4 1 1 1 278 a04.gif 1 X 
10 1 1 276 4 1 2 0 286 e04.gif 1 X 
10 1 1 277 4 0 0 1 1029 c08.gif 1 X 
10 1 1 278 4 2 0 0 358 c03.gif 1 X 
10 1 1 279 4 0 0 1 253 c07.gif 1 X 
10 1 1 280 4 2 2 1 456 e02.gif 1 X 
10 1 1 281 4 2 0 0 239 c04.gif 1 X 
10 1 1 282 4 0 0 1 341 c02.gif 1 X 
10 1 1 283 4 0 0 1 269 c04.gif 1 X 
10 1 1 284 4 0 0 1 127 c01.gif 1 X 
10 1 1 285 4 0 0 1 190 c05.gif 1 X 
10 1 1 286 4 0 0 1 206 c01.gif 1 X 
10 1 1 287 4 0 0 1 247 c04.gif 1 X 
10 1 3 288 5 0 0 1 2760 c12.gif 1 0
10 1 3 289 5 0 0 1 685 c10.gif 1 0
10 1 3 290 5 0 0 1 859 c05.gif 1 1
10 1 3 291 5 1 1 1 739 a16.gif 1 0
10 1 3 292 5 1 1 1 372 a03.gif 1 1
10 1 3 293 5 1 2 0 300 e07.gif 1 1
10 1 3 294 5 0 2 0 324 e02.gif 1 1
10 1 3 295 5 1 2 0 252 e08.gif 1 1
10 1 3 296 5 1 2 0 365 e11.gif 1 0
10 1 3 297 5 0 1 0 492 a09.gif 1 0
10 1 3 298 5 1 1 1 242 a07.gif 1 1
10 1 3 299 5 1 0 0 404 c06.gif 1 1
10 1 3 300 5 1 2 0 315 e06.gif 1 1
10 1 3 301 5 1 1 1 266 a06.gif 1 1
10 1 3 302 5 1 0 0 323 c14.gif 1 0
10 1 3 303 5 1 1 1 244 a08.gif 1 1
10 1 3 304 5 1 0 0 212 c07.gif 1 1
10 1 3 305 5 0 1 0 147 a12.gif 1 0
10 1 3 306 5 0 2 0 164 e10.gif 1 0
10 1 3 307 5 0 1 0 299 a02.gif 1 1
10 1 3 308 5 0 0 1 228 c09.gif 1 0
10 1 3 309 5 0 2 0 124 e05.gif 1 1
10 1 3 310 5 0 2 0 218 e12.gif 1 0
10 1 3 311 5 0 2 0 204 e13.gif 1 0
10 1 3 312 5 1 0 0 284 c08.gif 1 1
10 1 3 313 5 1 1 1 171 a11.gif 1 0
10 1 3 314 5 1 0 0 164 c03.gif 1 1
10 1 3 315 5 0 1 0 124 a10.gif 1 0
10 1 3 316 5 1 1 1 180 a14.gif 1 0
10 1 3 317 5 1 0 0 171 c15.gif 1 0
10 1 3 318 5 1 1 1 236 a15.gif 1 0
10 1 3 319 5 0 0 1 84 c13.gif 1 0
10 1 3 320 5 0 1 0 179 a04.gif 1 1
10 1 3 321 5 0 0 1 125 c02.gif 1 1
10 1 3 322 5 1 0 0 229 c16.gif 1 0
10 1 3 323 5 0 0 1 236 c04.gif 1 1
10 1 3 324 5 0 2 0 196 e09.gif 1 0
10 1 3 325 5 0 1 0 188 a01.gif 1 1
10 1 3 326 5 1 2 0 156 e14.gif 1 0
10 1 3 327 5 0 1 0 20 a05.gif 1 1
10 1 3 328 5 2 1 0 850 a13.gif 1 0
10 1 3 329 5 0 2 0 140 e04.gif 1 1
10 1 3 330 5 1 2 0 188 e15.gif 1 0
10 1 3 331 5 0 2 0 52 e01.gif 1 1
10 1 3 332 5 1 0 0 171 c11.gif 1 0
10 1 3 333 5 0 0 1 68 c01.gif 1 1
10 1 3 334 5 1 2 0 76 e03.gif 1 1
10 1 3 335 5 2 2 1 100 e16.gif 1 0
10 1 1 336 1 0 2 0 606 d08.gif 0 X
10 1 1 337 1 0 2 0 533 d04.gif 0 X
10 1 1 338 1 2 2 1 118 d02.gif 0 X
10 1 1 339 1 2 0 0 279 b05.gif 0 X
10 1 1 340 1 0 0 1 326 b06.gif 0 X
10 1 1 341 1 2 0 0 582 b04.gif 0 X
10 1 1 342 1 0 1 0 229 f05.gif 0 X
10 1 1 343 1 1 2 0 1213 d04.gif 0 X
10 1 1 344 1 0 1 0 902 f07.gif 0 X
10 1 1 345 1 1 0 0 85 b07.gif 0 X
10 1 1 346 1 0 1 0 933 f07.gif 0 X
10 1 1 347 1 2 0 0 542 b04.gif 0 X
10 1 1 348 1 0 2 0 925 d01.gif 0 X
10 1 1 349 1 2 1 0 166 f06.gif 0 X
10 1 1 350 1 2 2 1 205 d01.gif 0 X
10 1 1 351 1 1 1 1 526 f01.gif 0 X
10 1 1 352 1 1 0 0 365 b05.gif 0 X
10 1 1 353 1 1 2 0 440 d03.gif 0 X
10 1 1 354 1 2 1 0 103 f08.gif 0 X
10 1 1 355 1 0 0 1 189 b03.gif 0 X
10 1 1 356 1 0 2 0 198 d06.gif 0 X
10 1 1 357 1 2 0 0 613 b02.gif 0 X
10 1 1 358 1 0 0 1 369 b06.gif 0 X
10 1 1 359 1 0 0 1 366 b08.gif 0 X
10 1 1 360 1 1 2 0 293 d07.gif 0 X
10 1 1 361 1 1 0 0 166 b01.gif 0 X
10 1 1 362 1 1 1 1 222 f01.gif 0 X
10 1 1 363 1 2 2 1 248 d03.gif 0 X
10 1 1 364 1 0 2 0 158 d08.gif 0 X
10 1 1 365 1 1 1 1 612 f02.gif 0 X
10 1 1 366 1 0 1 0 334 f02.gif 0 X
10 1 1 367 1 0 2 0 1151 d05.gif 0 X
10 1 1 368 1 2 2 1 118 d02.gif 0 X
10 1 1 369 1 0 1 0 246 f02.gif 0 X
10 1 1 370 1 1 2 0 214 d04.gif 0 X
10 1 1 371 1 2 1 0 228 f05.gif 0 X
10 1 1 372 1 1 0 0 343 b02.gif 0 X
10 1 1 373 1 1 0 0 93 b03.gif 0 X
10 1 1 374 1 0 1 0 694 f08.gif 0 X
10 1 1 375 1 1 2 0 205 d04.gif 0 X
10 1 1 376 1 2 1 0 190 f04.gif 0 X
10 1 1 377 1 2 2 1 246 d06.gif 0 X
10 1 1 378 1 1 0 0 765 b03.gif 0 X
10 1 1 379 1 1 1 1 488 f06.gif 0 X
10 1 1 380 1 2 0 0 262 b06.gif 0 X
10 1 1 381 1 2 0 0 149 b07.gif 0 X
10 1 1 382 1 0 2 0 332 d05.gif 0 X
10 1 1 383 1 2 0 0 134 b07.gif 0 X
10 1 1 384 1 2 2 1 512 d03.gif 0 X
10 1 1 385 1 2 2 1 271 d02.gif 0 X
10 1 1 386 1 1 1 1 373 f03.gif 0 X
10 1 1 387 1 2 2 1 527 d07.gif 0 X
10 1 1 388 1 0 2 0 374 d01.gif 0 X
10 1 1 389 1 2 1 0 206 f08.gif 0 X
10 1 1 390 1 1 2 0 253 d08.gif 0 X
10 1 1 391 1 2 1 0 455 f03.gif 0 X
10 1 1 392 1 0 0 1 478 b05.gif 0 X
10 1 1 393 1 2 1 0 959 f03.gif 0 X
10 1 1 394 1 2 2 1 311 d02.gif 0 X
10 1 1 395 1 1 1 1 23 f06.gif 0 X
10 1 1 396 1 1 0 0 166 b02.gif 0 X
10 1 1 397 1 0 2 0 31 d03.gif 0 X
10 1 1 398 1 1 1 1 70 f04.gif 0 X
10 1 1 399 1 1 1 1 199 f07.gif 0 X
10 1 1 400 1 1 0 0 182 b03.gif 0 X
10 1 1 401 1 2 1 0 262 f04.gif 0 X
10 1 1 402 1 0 0 1 732 b06.gif 0 X
10 1 1 403 1 0 0 1 463 b08.gif 0 X
10 1 1 404 1 0 1 0 454 f04.gif 0 X
10 1 1 405 1 2 0 0 221 b04.gif 0 X
10 1 1 406 1 0 1 0 1895 f07.gif 0 X
10 1 1 407 1 2 2 1 348 d06.gif 0 X
10 1 1 408 2 2 2 1 2146 d08.gif 0 X
10 1 1 409 2 2 2 1 262 d04.gif 0 X
10 1 1 410 2 2 2 1 350 d02.gif 0 X
10 1 1 411 2 0 0 1 286 b05.gif 0 X
10 1 1 412 2 1 0 0 86 b06.gif 0 X
10 1 1 413 2 0 0 1 639 b04.gif 0 X
10 1 1 414 2 0 1 0 206 f05.gif 0 X
10 1 1 415 2 1 2 0 420 d04.gif 0 X
10 1 1 416 2 2 1 0 72 f07.gif 0 X
10 1 1 417 2 0 0 1 319 b07.gif 0 X
10 1 1 418 2 0 1 0 550 f07.gif 0 X
10 1 1 419 2 1 0 0 422 b04.gif 0 X
10 1 1 420 2 1 2 0 1367 d01.gif 0 X
10 1 1 421 2 1 1 1 2838 f06.gif 0 X
10 1 1 422 2 1 2 0 126 d01.gif 0 X
10 1 1 423 2 2 1 0 268 f01.gif 0 X
10 1 1 424 2 1 0 0 237 b05.gif 0 X
10 1 1 425 2 0 2 0 1118 d03.gif 0 X
10 1 1 426 2 0 1 0 5420 f08.gif 0 X
10 1 1 427 2 2 0 0 97 b03.gif 0 X
10 1 1 428 2 0 2 0 135 d06.gif 0 X
10 1 1 429 2 2 0 0 21 b02.gif 0 X
10 1 1 430 2 1 0 0 182 b06.gif 0 X
10 1 1 431 2 1 0 0 1261 b08.gif 0 X
10 1 1 432 2 2 2 1 1934 d07.gif 0 X
10 1 1 433 2 1 0 0 1070 b01.gif 0 X
10 1 1 434 2 0 1 0 4453 f01.gif 0 X
10 1 1 435 2 0 2 0 7798 d03.gif 0 X
10 1 1 436 2 2 2 1 62 d08.gif 0 X
10 1 1 437 2 0 1 0 1542 f02.gif 0 X
10 1 1 438 2 1 1 1 2142 f02.gif 0 X
10 1 1 439 2 0 2 0 518 d05.gif 0 X
10 1 1 440 2 2 2 1 54 d02.gif 0 X
10 1 1 441 2 2 1 0 87 f02.gif 0 X
10 1 1 442 2 1 2 0 341 d04.gif 0 X
10 1 1 443 2 2 1 0 563 f05.gif 0 X
10 1 1 444 2 2 0 0 1311 b02.gif 0 X
10 1 1 445 2 2 0 0 1735 b03.gif 0 X
10 1 1 446 2 2 1 0 654 f08.gif 0 X
10 1 1 447 2 0 2 0 276 d04.gif 0 X
10 1 1 448 2 0 1 0 237 f04.gif 0 X
10 1 1 449 2 1 2 0 1047 d06.gif 0 X
10 1 1 450 2 2 0 0 158 b03.gif 0 X
10 1 1 451 2 0 1 0 870 f06.gif 0 X
10 1 1 452 2 0 0 1 205 b06.gif 0 X
10 1 1 453 2 2 0 0 2023 b07.gif 0 X
10 1 1 454 2 0 2 0 535 d05.gif 0 X
10 1 1 455 2 0 0 1 4789 b07.gif 0 X
10 1 1 456 2 0 2 0 6 d03.gif 0 X
10 1 1 457 2 0 2 0 1604 d02.gif 0 X
10 1 1 458 2 1 1 1 454 f03.gif 0 X
10 1 1 459 2 2 2 1 270 d07.gif 0 X
10 1 1 460 2 1 2 0 93 d01.gif 0 X
10 1 1 461 2 2 1 0 510 f08.gif 0 X
10 1 1 462 2 2 2 1 694 d08.gif 0 X
10 1 1 463 2 0 1 0 704 f03.gif 0 X
10 1 1 464 2 2 0 0 238 b05.gif 0 X
10 1 1 465 2 2 1 0 822 f03.gif 0 X
10 1 1 466 2 0 2 0 69 d02.gif 0 X
10 1 1 467 2 1 1 1 134 f06.gif 0 X
10 1 1 468 2 2 0 0 422 b02.gif 0 X
10 1 1 469 2 2 2 1 589 d03.gif 0 X
10 1 1 470 2 2 1 0 574 f04.gif 0 X
10 1 1 471 2 0 1 0 726 f07.gif 0 X
10 1 1 472 2 2 0 0 238 b03.gif 0 X
10 1 1 473 2 1 1 1 191 f04.gif 0 X
10 1 1 474 2 0 0 1 239 b06.gif 0 X
10 1 1 475 2 0 0 1 144 b08.gif 0 X
10 1 1 476 2 2 1 0 102 f04.gif 0 X
10 1 1 477 2 1 0 0 166 b04.gif 0 X
10 1 1 478 2 0 1 0 15 f07.gif 0 X
10 1 1 479 2 0 2 0 78 d06.gif 0 X
10 1 1 480 3 1 2 0 619 d08.gif 0 X
10 1 1 481 3 2 2 1 262 d04.gif 0 X
10 1 1 482 3 2 2 1 438 d02.gif 0 X
10 1 1 483 3 0 0 1 542 b05.gif 0 X
10 1 1 484 3 0 0 1 191 b06.gif 0 X
10 1 1 485 3 2 0 0 70 b04.gif 0 X
10 1 1 486 3 1 1 1 726 f05.gif 0 X
10 1 1 487 3 0 2 0 295 d04.gif 0 X
10 1 1 488 3 1 1 1 229 f07.gif 0 X
10 1 1 489 3 2 0 0 190 b07.gif 0 X
10 1 1 490 3 1 1 1 110 f07.gif 0 X
10 1 1 491 3 1 0 0 301 b04.gif 0 X
10 1 1 492 3 2 2 1 62 d01.gif 0 X
10 1 1 493 3 2 1 0 391 f06.gif 0 X
10 1 1 494 3 0 2 0 813 d01.gif 0 X
10 1 1 495 3 2 1 0 342 f01.gif 0 X
10 1 1 496 3 2 0 0 366 b05.gif 0 X
10 1 1 497 3 2 2 1 414 d03.gif 0 X
10 1 1 498 3 1 1 1 464 f08.gif 0 X
10 1 1 499 3 2 0 0 263 b03.gif 0 X
10 1 1 500 3 0 2 0 302 d06.gif 0 X
10 1 1 501 3 2 0 0 1046 b02.gif 0 X
10 1 1 502 3 0 0 1 455 b06.gif 0 X
10 1 1 503 3 0 0 1 4054 b08.gif 0 X
10 1 1 504 3 0 2 0 1694 d07.gif 0 X
10 1 1 505 3 0 0 1 894 b01.gif 0 X
10 1 1 506 3 0 1 0 1008 f01.gif 0 X
10 1 1 507 3 1 2 0 116 d03.gif 0 X
10 1 1 508 3 2 2 1 909 d08.gif 0 X
10 1 1 509 3 0 1 0 158 f02.gif 0 X
10 1 1 510 3 1 1 1 45 f02.gif 0 X
10 1 1 511 3 1 2 0 127 d05.gif 0 X
10 1 1 512 3 1 2 0 765 d02.gif 0 X
10 1 1 513 3 0 1 0 365 f02.gif 0 X
10 1 1 514 3 1 2 0 44 d04.gif 0 X
10 1 1 515 3 0 1 0 270 f05.gif 0 X
10 1 1 516 3 0 0 1 333 b02.gif 0 X
10 1 1 517 3 2 0 0 231 b03.gif 0 X
10 1 1 518 3 1 1 1 758 f08.gif 0 X
10 1 1 519 3 2 2 1 430 d04.gif 0 X
10 1 1 520 3 2 1 0 751 f04.gif 0 X
10 1 1 521 3 1 2 0 3197 d06.gif 0 X
10 1 1 522 3 1 0 0 271 b03.gif 0 X
10 1 1 523 3 0 1 0 6 f06.gif 0 X
10 1 1 524 3 2 0 0 59 b06.gif 0 X
10 1 1 525 3 2 0 0 470 b07.gif 0 X
10 1 1 526 3 2 2 1 317 d05.gif 0 X
10 1 1 527 3 2 0 0 206 b07.gif 0 X
10 1 1 528 3 1 2 0 783 d03.gif 0 X
10 1 1 529 3 1 2 0 1550 d02.gif 0 X
10 1 1 530 3 1 1 1 1599 f03.gif 0 X
10 1 1 531 3 0 2 0 1062 d07.gif 0 X
10 1 1 532 3 2 2 1 774 d01.gif 0 X
10 1 1 533 3 0 1 0 959 f08.gif 0 X
10 1 1 534 3 0 2 0 445 d08.gif 0 X
10 1 1 535 3 2 1 0 1436 f03.gif 0 X
10 1 1 536 3 2 0 0 1022 b05.gif 0 X
10 1 1 537 3 0 1 0 391 f03.gif 0 X
10 1 1 538 3 1 2 0 948 d02.gif 0 X
10 1 1 539 3 1 1 1 574 f06.gif 0 X
10 1 1 540 3 2 0 0 287 b02.gif 0 X
10 1 1 541 3 0 2 0 94 d03.gif 0 X
10 1 1 542 3 0 1 0 3752 f04.gif 0 X
10 1 1 543 3 0 1 0 2110 f07.gif 0 X
10 1 1 544 3 1 0 0 5 b03.gif 0 X
10 1 1 545 3 1 1 1 211 f04.gif 0 X
10 1 1 546 3 0 0 1 143 b06.gif 0 X
10 1 1 547 3 2 0 0 161 b08.gif 0 X
10 1 1 548 3 1 1 1 159 f04.gif 0 X
10 1 1 549 3 2 0 0 208 b04.gif 0 X
10 1 1 550 3 2 1 0 1646 f07.gif 0 X
10 1 1 551 3 0 2 0 357 d06.gif 0 X
10 1 1 552 4 0 2 0 721 d08.gif 0 X
10 1 1 553 4 2 2 1 117 d04.gif 0 X
10 1 1 554 4 0 2 0 70 d02.gif 0 X
10 1 1 555 4 2 0 0 87 b05.gif 0 X
10 1 1 556 4 2 0 0 1406 b06.gif 0 X
10 1 1 557 4 1 0 0 134 b04.gif 0 X
10 1 1 558 4 1 1 1 1982 f05.gif 0 X
10 1 1 559 4 2 2 1 454 d04.gif 0 X
10 1 1 560 4 0 1 0 88 f07.gif 0 X
10 1 1 561 4 1 0 0 310 b07.gif 0 X
10 1 1 562 4 1 1 1 1549 f07.gif 0 X
10 1 1 563 4 2 0 0 366 b04.gif 0 X
10 1 1 564 4 2 2 1 511 d01.gif 0 X
10 1 1 565 4 2 1 0 103 f06.gif 0 X
10 1 1 566 4 0 2 0 749 d01.gif 0 X
10 1 1 567 4 1 1 1 742 f01.gif 0 X
10 1 1 568 4 2 0 0 293 b05.gif 0 X
10 1 1 569 4 2 2 1 222 d03.gif 0 X
10 1 1 570 4 0 1 0 375 f08.gif 0 X
10 1 1 571 4 0 0 1 2030 b03.gif 0 X
10 1 1 572 4 2 2 1 334 d06.gif 0 X
10 1 1 573 4 1 0 0 302 b02.gif 0 X
10 1 1 574 4 1 0 0 55 b06.gif 0 X
10 1 1 575 4 2 0 0 127 b08.gif 0 X
10 1 1 576 4 0 2 0 181 d07.gif 0 X
10 1 1 577 4 0 0 1 101 b01.gif 0 X
10 1 1 578 4 1 1 1 287 f01.gif 0 X
10 1 1 579 4 1 2 0 206 d03.gif 0 X
10 1 1 580 4 0 2 0 254 d08.gif 0 X
10 1 1 581 4 2 1 0 421 f02.gif 0 X
10 1 1 582 4 1 1 1 117 f02.gif 0 X
10 1 1 583 4 1 2 0 440 d05.gif 0 X
10 1 1 584 4 0 2 0 630 d02.gif 0 X
10 1 1 585 4 2 1 0 359 f02.gif 0 X
10 1 1 586 4 2 2 1 133 d04.gif 0 X
10 1 1 587 4 0 1 0 358 f05.gif 0 X
10 1 1 588 4 2 0 0 149 b02.gif 0 X
10 1 1 589 4 2 0 0 373 b03.gif 0 X
10 1 1 590 4 0 1 0 1015 f08.gif 0 X
10 1 1 591 4 1 2 0 3229 d04.gif 0 X
10 1 1 592 4 1 1 1 1214 f04.gif 0 X
10 1 1 593 4 2 2 1 1941 d06.gif 0 X
10 1 1 594 4 0 0 1 431 b03.gif 0 X
10 1 1 595 4 0 1 0 366 f06.gif 0 X
10 1 1 596 4 0 0 1 173 b06.gif 0 X
10 1 1 597 4 0 0 1 277 b07.gif 0 X
10 1 1 598 4 0 2 0 167 d05.gif 0 X
10 1 1 599 4 0 0 1 310 b07.gif 0 X
10 1 1 600 4 1 2 0 350 d03.gif 0 X
10 1 1 601 4 2 2 1 173 d02.gif 0 X
10 1 1 602 4 0 1 0 309 f03.gif 0 X
10 1 1 603 4 2 2 1 85 d07.gif 0 X
10 1 1 604 4 1 2 0 127 d01.gif 0 X
10 1 1 605 4 1 1 1 29 f08.gif 0 X
10 1 1 606 4 0 2 0 262 d08.gif 0 X
10 1 1 607 4 1 1 1 124 f03.gif 0 X
10 1 1 608 4 2 0 0 654 b05.gif 0 X
10 1 1 609 4 1 1 1 463 f03.gif 0 X
10 1 1 610 4 2 2 1 121 d02.gif 0 X
10 1 1 611 4 1 1 1 414 f06.gif 0 X
10 1 1 612 4 0 0 1 517 b02.gif 0 X
10 1 1 613 4 2 2 1 222 d03.gif 0 X
10 1 1 614 4 1 1 1 173 f04.gif 0 X
10 1 1 615 4 1 1 1 295 f07.gif 0 X
10 1 1 616 4 0 0 1 302 b03.gif 0 X
10 1 1 617 4 1 1 1 197 f04.gif 0 X
10 1 1 618 4 2 0 0 703 b06.gif 0 X
10 1 1 619 4 0 0 1 212 b08.gif 0 X
10 1 1 620 4 1 1 1 231 f04.gif 0 X
10 1 1 621 4 1 0 0 254 b04.gif 0 X
10 1 1 622 4 1 1 1 358 f07.gif 0 X
10 1 1 623 4 1 2 0 782 d06.gif 0 X
10 1 3 624 10 2 2 1 1169 d11.gif 0 0
10 1 3 625 10 1 2 0 252 d12.gif 0 0
10 1 3 626 10 1 0 0 180 b09.gif 0 0
10 1 3 627 10 0 0 1 235 b05.gif 0 1
10 1 3 628 10 2 0 0 196 b14.gif 0 0
10 1 3 629 10 1 1 1 1219 f11.gif 0 0
10 1 3 630 10 0 2 0 310 d16.gif 0 0
10 1 3 631 10 1 0 0 372 b12.gif 0 0
10 1 3 632 10 1 2 0 211 d02.gif 0 1
10 1 3 633 10 1 1 1 155 f01.gif 0 1
10 1 3 634 10 2 0 0 140 b06.gif 0 1
10 1 3 635 10 0 2 0 180 d07.gif 0 1
10 1 3 636 10 2 2 1 461 d01.gif 0 1
10 1 3 637 10 1 1 1 867 f13.gif 0 0
10 1 3 638 10 0 1 0 124 f05.gif 0 1
10 1 3 639 10 1 1 1 291 f04.gif 0 1
10 1 3 640 10 0 2 0 252 d05.gif 0 1
10 1 3 641 10 1 2 0 307 d04.gif 0 1
10 1 3 642 10 1 2 0 410 d10.gif 0 0
10 1 3 643 10 2 0 0 212 b15.gif 0 0
10 1 3 644 10 2 2 1 76 d06.gif 0 1
10 1 3 645 10 1 0 0 3 b04.gif 0 1
10 1 3 646 10 1 2 0 106 d15.gif 0 0
10 1 3 647 10 0 0 1 108 b03.gif 0 1
10 1 3 648 10 2 1 0 1548 f06.gif 0 1
10 1 3 649 10 1 1 1 324 f03.gif 0 1
10 1 3 650 10 1 0 0 645 b13.gif 0 0
10 1 3 651 10 0 1 0 44 f14.gif 0 0
10 1 3 652 10 0 1 0 237 f15.gif 0 0
10 1 3 653 10 1 0 0 181 b01.gif 0 1
10 1 3 654 10 1 1 1 290 f09.gif 0 0
10 1 3 655 10 0 0 1 285 b11.gif 0 0
10 1 3 656 10 1 0 0 220 b16.gif 0 0
10 1 3 657 10 0 0 1 244 b08.gif 0 1
10 1 3 658 10 1 2 0 220 d09.gif 0 0
10 1 3 659 10 2 2 1 68 d14.gif 0 0
10 1 3 660 10 0 1 0 266 f07.gif 0 1
10 1 3 661 10 1 1 1 242 f02.gif 0 1
10 1 3 662 10 0 1 0 332 f08.gif 0 1
10 1 3 663 10 1 1 1 379 f10.gif 0 0
10 1 3 664 10 1 2 0 804 d03.gif 0 1
10 1 3 665 10 1 1 1 563 f12.gif 0 0
10 1 3 666 10 1 0 0 699 b02.gif 0 1
10 1 3 667 10 1 2 0 269 d13.gif 0 0
10 1 3 668 10 0 2 0 156 d08.gif 0 1
10 1 3 669 10 1 0 0 301 b10.gif 0 0
10 1 3 670 10 2 1 0 59 f16.gif 0 0
10 1 3 671 10 0 0 1 250 b07.gif 0 1
11 0 1 0 1 0 2 0 1668 e07.gif 0 X 
11 0 1 1 1 1 1 1 1208 a03.gif 0 X 
11 0 1 2 1 0 2 0 1795 e03.gif 0 X 
11 0 1 3 1 0 2 0 88 e04.gif 0 X 
11 0 1 4 1 0 1 0 970 a05.gif 0 X 
11 0 1 5 1 0 0 1 479 b01.gif 0 X 
11 0 1 6 1 2 0 0 562 b02.gif 0 X 
11 0 1 7 1 1 2 0 808 e04.gif 0 X 
11 0 1 8 1 1 1 1 562 a05.gif 0 X 
11 0 1 9 1 0 0 1 569 b06.gif 0 X 
11 0 1 10 1 2 1 0 610 a07.gif 0 X 
11 0 1 11 1 0 2 0 479 e02.gif 0 X 
11 0 1 12 1 1 0 0 777 b03.gif 0 X 
11 0 1 13 1 1 1 1 715 a03.gif 0 X 
11 0 1 14 1 0 0 1 640 b08.gif 0 X 
11 0 1 15 1 2 1 0 659 a02.gif 0 X 
11 0 1 16 1 1 2 0 362 e02.gif 0 X 
11 0 1 17 1 2 1 0 458 a04.gif 0 X 
11 0 1 18 1 1 2 0 267 e06.gif 0 X 
11 0 1 19 1 1 0 0 455 b02.gif 0 X 
11 0 1 20 1 2 0 0 468 b02.gif 0 X 
11 0 1 21 1 1 1 1 338 a01.gif 0 X 
11 0 1 22 1 1 1 1 259 a04.gif 0 X 
11 0 1 23 1 2 1 0 908 a05.gif 0 X 
11 0 1 24 1 1 0 0 353 b01.gif 0 X 
11 0 1 25 1 1 1 1 442 a08.gif 0 X 
11 0 1 26 1 2 1 0 553 a04.gif 0 X 
11 0 1 27 1 0 0 1 204 b05.gif 0 X 
11 0 1 28 1 0 0 1 242 b05.gif 0 X 
11 0 1 29 1 0 1 0 1308 a06.gif 0 X 
11 0 1 30 1 2 2 1 217 e03.gif 0 X 
11 0 1 31 1 2 2 1 60 e04.gif 0 X 
11 0 1 32 1 2 2 1 306 e03.gif 0 X 
11 0 1 33 1 0 1 0 748 a08.gif 0 X 
11 0 1 34 1 1 1 1 271 a02.gif 0 X 
11 0 1 35 1 2 2 1 298 e08.gif 0 X 
11 0 1 36 1 2 2 1 563 e05.gif 0 X 
11 0 1 37 1 1 0 0 317 b03.gif 0 X 
11 0 1 38 1 2 0 0 280 b04.gif 0 X 
11 0 1 39 1 1 1 1 234 a05.gif 0 X 
11 0 1 40 1 0 1 0 315 a07.gif 0 X 
11 0 1 41 1 2 0 0 170 b04.gif 0 X 
11 0 1 42 1 0 0 1 178 b06.gif 0 X 
11 0 1 43 1 2 2 1 106 e01.gif 0 X 
11 0 1 44 1 2 2 1 392 e07.gif 0 X 
11 0 1 45 1 1 1 1 281 a06.gif 0 X 
11 0 1 46 1 2 2 1 297 e07.gif 0 X 
11 0 1 47 1 1 0 0 292 b04.gif 0 X 
11 0 1 48 1 0 1 0 425 a02.gif 0 X 
11 0 1 49 1 0 0 1 482 b07.gif 0 X 
11 0 1 50 1 2 2 1 299 e08.gif 0 X 
11 0 1 51 1 0 0 1 426 b01.gif 0 X 
11 0 1 52 1 1 1 1 340 a08.gif 0 X 
11 0 1 53 1 2 2 1 515 e02.gif 0 X 
11 0 1 54 1 0 0 1 290 b07.gif 0 X 
11 0 1 55 1 1 1 1 307 a06.gif 0 X 
11 0 1 56 1 0 0 1 404 b02.gif 0 X 
11 0 1 57 1 2 2 1 145 e02.gif 0 X 
11 0 1 58 1 0 1 0 356 a01.gif 0 X 
11 0 1 59 1 2 2 1 440 e08.gif 0 X 
11 0 1 60 1 0 0 1 258 b08.gif 0 X 
11 0 1 61 1 1 1 1 324 a06.gif 0 X 
11 0 1 62 1 0 0 1 297 b07.gif 0 X 
11 0 1 63 1 0 0 1 277 b06.gif 0 X 
11 0 1 64 1 2 2 1 340 e07.gif 0 X 
11 0 1 65 1 2 2 1 266 e06.gif 0 X 
11 0 1 66 1 1 1 1 565 a01.gif 0 X 
11 0 1 67 1 2 2 1 225 e04.gif 0 X 
11 0 1 68 1 0 1 0 50 a07.gif 0 X 
11 0 1 69 1 1 1 1 469 a01.gif 0 X 
11 0 1 70 1 2 0 0 451 b04.gif 0 X 
11 0 1 71 1 1 1 1 321 a07.gif 0 X 
11 0 1 72 2 1 2 0 1215 e07.gif 0 X 
11 0 1 73 2 1 1 1 153 a03.gif 0 X 
11 0 1 74 2 2 2 1 441 e03.gif 0 X 
11 0 1 75 2 2 2 1 299 e04.gif 0 X 
11 0 1 76 2 0 1 0 802 a05.gif 0 X 
11 0 1 77 2 0 0 1 287 b01.gif 0 X 
11 0 1 78 2 2 0 0 291 b02.gif 0 X 
11 0 1 79 2 2 2 1 266 e04.gif 0 X 
11 0 1 80 2 1 1 1 552 a05.gif 0 X 
11 0 1 81 2 1 0 0 652 b06.gif 0 X 
11 0 1 82 2 1 1 1 561 a07.gif 0 X 
11 0 1 83 2 2 2 1 244 e02.gif 0 X 
11 0 1 84 2 1 0 0 187 b03.gif 0 X 
11 0 1 85 2 1 1 1 564 a03.gif 0 X 
11 0 1 86 2 0 0 1 426 b08.gif 0 X 
11 0 1 87 2 1 1 1 217 a02.gif 0 X 
11 0 1 88 2 2 2 1 267 e02.gif 0 X 
11 0 1 89 2 1 1 1 539 a04.gif 0 X 
11 0 1 90 2 2 2 1 300 e06.gif 0 X 
11 0 1 91 2 0 0 1 403 b02.gif 0 X 
11 0 1 92 2 2 0 0 308 b02.gif 0 X 
11 0 1 93 2 1 1 1 312 a01.gif 0 X 
11 0 1 94 2 0 1 0 595 a04.gif 0 X 
11 0 1 95 2 1 1 1 337 a05.gif 0 X 
11 0 1 96 2 0 0 1 273 b01.gif 0 X 
11 0 1 97 2 1 1 1 307 a08.gif 0 X 
11 0 1 98 2 0 1 0 283 a04.gif 0 X 
11 0 1 99 2 0 0 1 455 b05.gif 0 X 
11 0 1 100 2 0 0 1 890 b05.gif 0 X 
11 0 1 101 2 1 1 1 304 a06.gif 0 X 
11 0 1 102 2 2 2 1 362 e03.gif 0 X 
11 0 1 103 2 1 2 0 273 e04.gif 0 X 
11 0 1 104 2 2 2 1 312 e03.gif 0 X 
11 0 1 105 2 1 1 1 329 a08.gif 0 X 
11 0 1 106 2 1 1 1 411 a02.gif 0 X 
11 0 1 107 2 2 2 1 260 e08.gif 0 X 
11 0 1 108 2 2 2 1 458 e05.gif 0 X 
11 0 1 109 2 0 0 1 466 b03.gif 0 X 
11 0 1 110 2 0 0 1 439 b04.gif 0 X 
11 0 1 111 2 0 1 0 263 a05.gif 0 X 
11 0 1 112 2 2 1 0 307 a07.gif 0 X 
11 0 1 113 2 0 0 1 225 b04.gif 0 X 
11 0 1 114 2 1 0 0 389 b06.gif 0 X 
11 0 1 115 2 2 2 1 458 e01.gif 0 X 
11 0 1 116 2 2 2 1 306 e07.gif 0 X 
11 0 1 117 2 1 1 1 282 a06.gif 0 X 
11 0 1 118 2 2 2 1 369 e07.gif 0 X 
11 0 1 119 2 0 0 1 377 b04.gif 0 X 
11 0 1 120 2 1 1 1 298 a02.gif 0 X 
11 0 1 121 2 1 0 0 492 b07.gif 0 X 
11 0 1 122 2 2 2 1 289 e08.gif 0 X 
11 0 1 123 2 0 0 1 269 b01.gif 0 X 
11 0 1 124 2 1 1 1 273 a08.gif 0 X 
11 0 1 125 2 2 2 1 467 e02.gif 0 X 
11 0 1 126 2 1 0 0 810 b07.gif 0 X 
11 0 1 127 2 1 1 1 145 a06.gif 0 X 
11 0 1 128 2 0 0 1 171 b02.gif 0 X 
11 0 1 129 2 2 2 1 257 e02.gif 0 X 
11 0 1 130 2 0 1 0 354 a01.gif 0 X 
11 0 1 131 2 2 2 1 280 e08.gif 0 X 
11 0 1 132 2 0 0 1 450 b08.gif 0 X 
11 0 1 133 2 1 1 1 376 a06.gif 0 X 
11 0 1 134 2 0 0 1 330 b07.gif 0 X 
11 0 1 135 2 0 0 1 624 b06.gif 0 X 
11 0 1 136 2 2 2 1 265 e07.gif 0 X 
11 0 1 137 2 0 2 0 549 e06.gif 0 X 
11 0 1 138 2 1 1 1 409 a01.gif 0 X 
11 0 1 139 2 2 2 1 272 e04.gif 0 X 
11 0 1 140 2 1 1 1 249 a07.gif 0 X 
11 0 1 141 2 1 1 1 531 a01.gif 0 X 
11 0 1 142 2 0 0 1 545 b04.gif 0 X 
11 0 1 143 2 1 1 1 259 a07.gif 0 X 
11 0 1 144 3 1 2 0 792 e07.gif 0 X 
11 0 1 145 3 0 1 0 433 a03.gif 0 X 
11 0 1 146 3 2 2 1 362 e03.gif 0 X 
11 0 1 147 3 1 2 0 273 e04.gif 0 X 
11 0 1 148 3 1 1 1 289 a05.gif 0 X 
11 0 1 149 3 0 0 1 313 b01.gif 0 X 
11 0 1 150 3 0 0 1 896 b02.gif 0 X 
11 0 1 151 3 2 2 1 324 e04.gif 0 X 
11 0 1 152 3 1 1 1 274 a05.gif 0 X 
11 0 1 153 3 1 0 0 298 b06.gif 0 X 
11 0 1 154 3 1 1 1 273 a07.gif 0 X 
11 0 1 155 3 2 2 1 201 e02.gif 0 X 
11 0 1 156 3 0 0 1 307 b03.gif 0 X 
11 0 1 157 3 1 1 1 354 a03.gif 0 X 
11 0 1 158 3 2 0 0 472 b08.gif 0 X 
11 0 1 159 3 1 1 1 177 a02.gif 0 X 
11 0 1 160 3 2 2 1 397 e02.gif 0 X 
11 0 1 161 3 1 1 1 352 a04.gif 0 X 
11 0 1 162 3 2 2 1 211 e06.gif 0 X 
11 0 1 163 3 0 0 1 298 b02.gif 0 X 
11 0 1 164 3 0 0 1 268 b02.gif 0 X 
11 0 1 165 3 1 1 1 193 a01.gif 0 X 
11 0 1 166 3 1 1 1 336 a04.gif 0 X 
11 0 1 167 3 1 1 1 234 a05.gif 0 X 
11 0 1 168 3 0 0 1 266 b01.gif 0 X 
11 0 1 169 3 1 1 1 234 a08.gif 0 X 
11 0 1 170 3 1 1 1 529 a04.gif 0 X 
11 0 1 171 3 0 0 1 260 b05.gif 0 X 
11 0 1 172 3 0 0 1 52 b05.gif 0 X 
11 0 1 173 3 1 1 1 97 a06.gif 0 X 
11 0 1 174 3 2 2 1 217 e03.gif 0 X 
11 0 1 175 3 2 2 1 153 e04.gif 0 X 
11 0 1 176 3 2 2 1 226 e03.gif 0 X 
11 0 1 177 3 1 1 1 201 a08.gif 0 X 
11 0 1 178 3 1 1 1 767 a02.gif 0 X 
11 0 1 179 3 2 2 1 556 e08.gif 0 X 
11 0 1 180 3 2 2 1 244 e05.gif 0 X 
11 0 1 181 3 1 0 0 13 b03.gif 0 X 
11 0 1 182 3 0 0 1 198 b04.gif 0 X 
11 0 1 183 3 0 1 0 137 a05.gif 0 X 
11 0 1 184 3 0 1 0 248 a07.gif 0 X 
11 0 1 185 3 0 0 1 290 b04.gif 0 X 
11 0 1 186 3 1 0 0 251 b06.gif 0 X 
11 0 1 187 3 2 2 1 328 e01.gif 0 X 
11 0 1 188 3 2 2 1 297 e07.gif 0 X 
11 0 1 189 3 1 1 1 50 a06.gif 0 X 
11 0 1 190 3 2 2 1 12 e07.gif 0 X 
11 0 1 191 3 0 0 1 270 b04.gif 0 X 
11 0 1 192 3 1 1 1 600 a02.gif 0 X 
11 0 1 193 3 0 0 1 137 b07.gif 0 X 
11 0 1 194 3 2 2 1 97 e08.gif 0 X 
11 0 1 195 3 0 0 1 25 b01.gif 0 X 
11 0 1 196 3 1 1 1 449 a08.gif 0 X 
11 0 1 197 3 2 2 1 249 e02.gif 0 X 
11 0 1 198 3 0 0 1 225 b07.gif 0 X 
11 0 1 199 3 1 1 1 289 a06.gif 0 X 
11 0 1 200 3 0 0 1 194 b02.gif 0 X 
11 0 1 201 3 2 2 1 194 e02.gif 0 X 
11 0 1 202 3 1 1 1 530 a01.gif 0 X 
11 0 1 203 3 2 2 1 409 e08.gif 0 X 
11 0 1 204 3 0 0 1 314 b08.gif 0 X 
11 0 1 205 3 2 1 0 394 a06.gif 0 X 
11 0 1 206 3 0 0 1 120 b07.gif 0 X 
11 0 1 207 3 0 0 1 744 b06.gif 0 X 
11 0 1 208 3 2 2 1 459 e07.gif 0 X 
11 0 1 209 3 2 2 1 449 e06.gif 0 X 
11 0 1 210 3 1 1 1 91 a01.gif 0 X 
11 0 1 211 3 2 2 1 298 e04.gif 0 X 
11 0 1 212 3 1 1 1 864 a07.gif 0 X 
11 0 1 213 3 1 1 1 451 a01.gif 0 X 
11 0 1 214 3 0 0 1 464 b04.gif 0 X 
11 0 1 215 3 1 1 1 209 a07.gif 0 X 
11 0 1 216 4 1 2 0 656 e07.gif 0 X 
11 0 1 217 4 1 1 1 409 a03.gif 0 X 
11 0 1 218 4 2 2 1 13 e03.gif 0 X 
11 0 1 219 4 1 2 0 430 e04.gif 0 X 
11 0 1 220 4 1 1 1 314 a05.gif 0 X 
11 0 1 221 4 0 0 1 393 b01.gif 0 X 
11 0 1 222 4 2 0 0 402 b02.gif 0 X 
11 0 1 223 4 2 2 1 249 e04.gif 0 X 
11 0 1 224 4 1 1 1 355 a05.gif 0 X 
11 0 1 225 4 0 0 1 242 b06.gif 0 X 
11 0 1 226 4 1 1 1 113 a07.gif 0 X 
11 0 1 227 4 2 2 1 186 e02.gif 0 X 
11 0 1 228 4 0 0 1 425 b03.gif 0 X 
11 0 1 229 4 1 1 1 330 a03.gif 0 X 
11 0 1 230 4 0 0 1 353 b08.gif 0 X 
11 0 1 231 4 1 1 1 305 a02.gif 0 X 
11 0 1 232 4 2 2 1 587 e02.gif 0 X 
11 0 1 233 4 1 1 1 274 a04.gif 0 X 
11 0 1 234 4 2 2 1 176 e06.gif 0 X 
11 0 1 235 4 0 0 1 281 b02.gif 0 X 
11 0 1 236 4 0 0 1 225 b02.gif 0 X 
11 0 1 237 4 1 1 1 3 a01.gif 0 X 
11 0 1 238 4 1 1 1 472 a04.gif 0 X 
11 0 1 239 4 1 1 1 170 a05.gif 0 X 
11 0 1 240 4 0 0 1 116 b01.gif 0 X 
11 0 1 241 4 0 1 0 50 a08.gif 0 X 
11 0 1 242 4 1 1 1 272 a04.gif 0 X 
11 0 1 243 4 0 0 1 27 b05.gif 0 X 
11 0 1 244 4 0 0 1 41 b05.gif 0 X 
11 0 1 245 4 1 1 1 905 a06.gif 0 X 
11 0 1 246 4 2 2 1 137 e03.gif 0 X 
11 0 1 247 4 1 2 0 89 e04.gif 0 X 
11 0 1 248 4 2 2 1 26 e03.gif 0 X 
11 0 1 249 4 1 1 1 408 a08.gif 0 X 
11 0 1 250 4 1 1 1 250 a02.gif 0 X 
11 0 1 251 4 2 2 1 170 e08.gif 0 X 
11 0 1 252 4 2 2 1 145 e05.gif 0 X 
11 0 1 253 4 0 0 1 217 b03.gif 0 X 
11 0 1 254 4 0 0 1 75 b04.gif 0 X 
11 0 1 255 4 1 1 1 73 a05.gif 0 X 
11 0 1 256 4 1 1 1 249 a07.gif 0 X 
11 0 1 257 4 0 0 1 474 b04.gif 0 X 
11 0 1 258 4 0 0 1 554 b06.gif 0 X 
11 0 1 259 4 2 2 1 248 e01.gif 0 X 
11 0 1 260 4 2 2 1 105 e07.gif 0 X 
11 0 1 261 4 1 1 1 241 a06.gif 0 X 
11 0 1 262 4 2 2 1 225 e07.gif 0 X 
11 0 1 263 4 0 0 1 236 b04.gif 0 X 
11 0 1 264 4 1 1 1 193 a02.gif 0 X 
11 0 1 265 4 0 0 1 209 b07.gif 0 X 
11 0 1 266 4 2 2 1 33 e08.gif 0 X 
11 0 1 267 4 0 0 1 73 b01.gif 0 X 
11 0 1 268 4 1 1 1 41 a08.gif 0 X 
11 0 1 269 4 2 2 1 89 e02.gif 0 X 
11 0 1 270 4 0 0 1 145 b07.gif 0 X 
11 0 1 271 4 1 1 1 160 a06.gif 0 X 
11 0 1 272 4 0 0 1 122 b02.gif 0 X 
11 0 1 273 4 2 2 1 179 e02.gif 0 X 
11 0 1 274 4 1 1 1 272 a01.gif 0 X 
11 0 1 275 4 2 2 1 227 e08.gif 0 X 
11 0 1 276 4 0 0 1 394 b08.gif 0 X 
11 0 1 277 4 1 1 1 568 a06.gif 0 X 
11 0 1 278 4 0 0 1 483 b07.gif 0 X 
11 0 1 279 4 0 0 1 242 b06.gif 0 X 
11 0 1 280 4 2 2 1 18 e07.gif 0 X 
11 0 1 281 4 2 2 1 256 e06.gif 0 X 
11 0 1 282 4 1 1 1 113 a01.gif 0 X 
11 0 1 283 4 2 2 1 281 e04.gif 0 X 
11 0 1 284 4 1 1 1 34 a07.gif 0 X 
11 0 1 285 4 1 1 1 458 a01.gif 0 X 
11 0 1 286 4 0 0 1 360 b04.gif 0 X 
11 0 1 287 4 1 1 1 362 a07.gif 0 X 
11 0 3 288 5 2 2 1 151 e01.gif 0 1
11 0 3 289 5 0 2 0 641 e15.gif 0 0
11 0 3 290 5 0 0 1 327 b09.gif 0 0
11 0 3 291 5 0 0 1 662 b14.gif 0 0
11 0 3 292 5 1 1 1 153 a03.gif 0 1
11 0 3 293 5 2 2 1 383 e14.gif 0 0
11 0 3 294 5 0 0 1 1038 b05.gif 0 1
11 0 3 295 5 0 1 0 518 a12.gif 0 0
11 0 3 296 5 1 1 1 392 a08.gif 0 1
11 0 3 297 5 2 0 0 638 b02.gif 0 1
11 0 3 298 5 2 2 1 528 e06.gif 0 1
11 0 3 299 5 0 0 1 407 b03.gif 0 1
11 0 3 300 5 0 2 0 969 e16.gif 0 0
11 0 3 301 5 1 0 0 688 b13.gif 0 0
11 0 3 302 5 1 1 1 175 a06.gif 0 1
11 0 3 303 5 0 0 1 494 b15.gif 0 0
11 0 3 304 5 2 2 1 297 e05.gif 0 1
11 0 3 305 5 1 1 1 161 a05.gif 0 1
11 0 3 306 5 0 1 0 298 a09.gif 0 0
11 0 3 307 5 0 0 1 257 b08.gif 0 1
11 0 3 308 5 0 0 1 257 b12.gif 0 0
11 0 3 309 5 1 1 1 280 a02.gif 0 1
11 0 3 310 5 2 2 1 224 e04.gif 0 1
11 0 3 311 5 1 1 1 231 a01.gif 0 1
11 0 3 312 5 2 2 1 232 e07.gif 0 1
11 0 3 313 5 0 2 0 264 e10.gif 0 0
11 0 3 314 5 0 1 0 376 a04.gif 0 1
11 0 3 315 5 0 0 1 280 b07.gif 0 1
11 0 3 316 5 1 0 0 253 b10.gif 0 0
11 0 3 317 5 0 1 0 183 a14.gif 0 0
11 0 3 318 5 2 2 1 222 e02.gif 0 1
11 0 3 319 5 0 0 1 223 b04.gif 0 1
11 0 3 320 5 0 0 1 199 b16.gif 0 0
11 0 3 321 5 2 2 1 200 e03.gif 0 1
11 0 3 322 5 0 1 0 304 a15.gif 0 0
11 0 3 323 5 0 1 0 256 a11.gif 0 0
11 0 3 324 5 0 2 0 151 e11.gif 0 0
11 0 3 325 5 0 2 0 311 e09.gif 0 0
11 0 3 326 5 0 0 1 174 b01.gif 0 1
11 0 3 327 5 0 1 0 214 a13.gif 0 0
11 0 3 328 5 1 1 1 231 a10.gif 0 0
11 0 3 329 5 0 1 0 159 a16.gif 0 0
11 0 3 330 5 0 0 1 298 b06.gif 0 1
11 0 3 331 5 0 2 0 197 e13.gif 0 0
11 0 3 332 5 1 1 1 264 a07.gif 0 1
11 0 3 333 5 2 2 1 262 e08.gif 0 1
11 0 3 334 5 0 0 1 263 b11.gif 0 0
11 0 3 335 5 2 2 1 263 e12.gif 0 0
11 0 1 336 1 0 2 0 477 d06.gif 1 X
11 0 1 337 1 1 2 0 368 d02.gif 1 X
11 0 1 338 1 0 0 1 729 c06.gif 1 X
11 0 1 339 1 1 0 0 58 c05.gif 1 X
11 0 1 340 1 0 0 1 482 c01.gif 1 X
11 0 1 341 1 0 0 1 258 c08.gif 1 X
11 0 1 342 1 0 0 1 383 c07.gif 1 X
11 0 1 343 1 0 0 1 313 c03.gif 1 X
11 0 1 344 1 1 2 0 452 d03.gif 1 X
11 0 1 345 1 1 2 0 273 d08.gif 1 X
11 0 1 346 1 2 2 1 135 d07.gif 1 X
11 0 1 347 1 2 2 1 57 d08.gif 1 X
11 0 1 348 1 1 2 0 50 d04.gif 1 X
11 0 1 349 1 2 2 1 105 d05.gif 1 X
11 0 1 350 1 1 2 0 354 d01.gif 1 X
11 0 1 351 1 2 1 0 1063 f06.gif 1 X
11 0 1 352 1 2 1 0 481 f03.gif 1 X
11 0 1 353 1 1 1 1 152 f06.gif 1 X
11 0 1 354 1 1 1 1 113 f01.gif 1 X
11 0 1 355 1 1 1 1 185 f08.gif 1 X
11 0 1 356 1 1 1 1 74 f07.gif 1 X
11 0 1 357 1 0 1 0 515 f04.gif 1 X
11 0 1 358 1 1 1 1 154 f08.gif 1 X
11 0 1 359 1 0 0 1 417 c01.gif 1 X
11 0 1 360 1 0 0 1 208 c01.gif 1 X
11 0 1 361 1 0 0 1 481 c05.gif 1 X
11 0 1 362 1 0 0 1 218 c02.gif 1 X
11 0 1 363 1 0 0 1 129 c02.gif 1 X
11 0 1 364 1 0 0 1 162 c03.gif 1 X
11 0 1 365 1 0 0 1 241 c07.gif 1 X
11 0 1 366 1 0 0 1 256 c07.gif 1 X
11 0 1 367 1 0 0 1 24 c06.gif 1 X
11 0 1 368 1 2 2 1 250 d03.gif 1 X
11 0 1 369 1 0 0 1 170 c08.gif 1 X
11 0 1 370 1 0 0 1 259 c04.gif 1 X
11 0 1 371 1 0 0 1 68 c04.gif 1 X
11 0 1 372 1 1 1 1 300 f01.gif 1 X
11 0 1 373 1 2 1 0 227 f05.gif 1 X
11 0 1 374 1 1 1 1 153 f02.gif 1 X
11 0 1 375 1 1 1 1 194 f02.gif 1 X
11 0 1 376 1 1 1 1 137 f07.gif 1 X
11 0 1 377 1 1 1 1 209 f03.gif 1 X
11 0 1 378 1 1 1 1 26 f08.gif 1 X
11 0 1 379 1 1 1 1 10 f02.gif 1 X
11 0 1 380 1 1 1 1 161 f03.gif 1 X
11 0 1 381 1 1 1 1 67 f04.gif 1 X
11 0 1 382 1 1 1 1 434 f01.gif 1 X
11 0 1 383 1 1 1 1 99 f08.gif 1 X
11 0 1 384 1 1 1 1 251 f07.gif 1 X
11 0 1 385 1 1 1 1 268 f06.gif 1 X
11 0 1 386 1 1 1 1 483 f04.gif 1 X
11 0 1 387 1 1 1 1 251 f07.gif 1 X
11 0 1 388 1 1 1 1 258 f04.gif 1 X
11 0 1 389 1 1 2 0 538 d07.gif 1 X
11 0 1 390 1 1 2 0 298 d02.gif 1 X
11 0 1 391 1 2 2 1 624 d01.gif 1 X
11 0 1 392 1 2 2 1 249 d08.gif 1 X
11 0 1 393 1 2 2 1 444 d05.gif 1 X
11 0 1 394 1 0 0 1 250 c04.gif 1 X
11 0 1 395 1 1 1 1 293 f06.gif 1 X
11 0 1 396 1 0 0 1 171 c04.gif 1 X
11 0 1 397 1 2 2 1 75 d05.gif 1 X
11 0 1 398 1 2 2 1 156 d02.gif 1 X
11 0 1 399 1 2 2 1 291 d05.gif 1 X
11 0 1 400 1 2 2 1 66 d01.gif 1 X
11 0 1 401 1 2 2 1 560 d04.gif 1 X
11 0 1 402 1 2 2 1 18 d04.gif 1 X
11 0 1 403 1 2 2 1 106 d06.gif 1 X
11 0 1 404 1 0 0 1 348 c05.gif 1 X
11 0 1 405 1 2 2 1 436 d02.gif 1 X
11 0 1 406 1 2 2 1 130 d08.gif 1 X
11 0 1 407 1 2 2 1 75 d04.gif 1 X
11 0 1 408 2 2 2 1 198 d06.gif 1 X
11 0 1 409 2 2 2 1 349 d02.gif 1 X
11 0 1 410 2 0 0 1 268 c06.gif 1 X
11 0 1 411 2 0 0 1 138 c05.gif 1 X
11 0 1 412 2 0 0 1 266 c01.gif 1 X
11 0 1 413 2 0 0 1 147 c08.gif 1 X
11 0 1 414 2 0 0 1 51 c07.gif 1 X
11 0 1 415 2 0 0 1 92 c03.gif 1 X
11 0 1 416 2 2 2 1 426 d03.gif 1 X
11 0 1 417 2 2 2 1 234 d08.gif 1 X
11 0 1 418 2 2 2 1 209 d07.gif 1 X
11 0 1 419 2 2 2 1 203 d08.gif 1 X
11 0 1 420 2 2 2 1 377 d04.gif 1 X
11 0 1 421 2 2 2 1 209 d05.gif 1 X
11 0 1 422 2 2 2 1 202 d01.gif 1 X
11 0 1 423 2 1 1 1 73 f06.gif 1 X
11 0 1 424 2 2 1 0 169 f03.gif 1 X
11 0 1 425 2 1 1 1 233 f06.gif 1 X
11 0 1 426 2 1 1 1 220 f01.gif 1 X
11 0 1 427 2 1 1 1 212 f08.gif 1 X
11 0 1 428 2 1 1 1 237 f07.gif 1 X
11 0 1 429 2 1 1 1 233 f04.gif 1 X
11 0 1 430 2 1 1 1 285 f08.gif 1 X
11 0 1 431 2 0 0 1 274 c01.gif 1 X
11 0 1 432 2 0 0 1 205 c01.gif 1 X
11 0 1 433 2 0 0 1 233 c05.gif 1 X
11 0 1 434 2 0 0 1 195 c02.gif 1 X
11 0 1 435 2 0 0 1 282 c02.gif 1 X
11 0 1 436 2 0 0 1 225 c03.gif 1 X
11 0 1 437 2 0 0 1 202 c07.gif 1 X
11 0 1 438 2 0 0 1 227 c07.gif 1 X
11 0 1 439 2 0 0 1 226 c06.gif 1 X
11 0 1 440 2 2 2 1 329 d03.gif 1 X
11 0 1 441 2 0 0 1 41 c08.gif 1 X
11 0 1 442 2 0 0 1 276 c04.gif 1 X
11 0 1 443 2 0 0 1 260 c04.gif 1 X
11 0 1 444 2 1 1 1 211 f01.gif 1 X
11 0 1 445 2 2 1 0 689 f05.gif 1 X
11 0 1 446 2 1 1 1 8 f02.gif 1 X
11 0 1 447 2 1 1 1 226 f02.gif 1 X
11 0 1 448 2 1 1 1 186 f07.gif 1 X
11 0 1 449 2 1 1 1 376 f03.gif 1 X
11 0 1 450 2 1 1 1 219 f08.gif 1 X
11 0 1 451 2 1 1 1 258 f02.gif 1 X
11 0 1 452 2 1 1 1 274 f03.gif 1 X
11 0 1 453 2 1 1 1 209 f04.gif 1 X
11 0 1 454 2 1 1 1 242 f01.gif 1 X
11 0 1 455 2 1 1 1 296 f08.gif 1 X
11 0 1 456 2 1 1 1 274 f07.gif 1 X
11 0 1 457 2 1 1 1 283 f06.gif 1 X
11 0 1 458 2 1 1 1 249 f04.gif 1 X
11 0 1 459 2 1 1 1 105 f07.gif 1 X
11 0 1 460 2 1 1 1 196 f04.gif 1 X
11 0 1 461 2 2 2 1 345 d07.gif 1 X
11 0 1 462 2 1 2 0 186 d02.gif 1 X
11 0 1 463 2 2 2 1 251 d01.gif 1 X
11 0 1 464 2 2 2 1 227 d08.gif 1 X
11 0 1 465 2 2 2 1 187 d05.gif 1 X
11 0 1 466 2 0 0 1 314 c04.gif 1 X
11 0 1 467 2 1 1 1 131 f06.gif 1 X
11 0 1 468 2 0 0 1 59 c04.gif 1 X
11 0 1 469 2 2 2 1 606 d05.gif 1 X
11 0 1 470 2 2 2 1 288 d02.gif 1 X
11 0 1 471 2 2 2 1 209 d05.gif 1 X
11 0 1 472 2 2 2 1 193 d01.gif 1 X
11 0 1 473 2 2 2 1 186 d04.gif 1 X
11 0 1 474 2 2 2 1 515 d04.gif 1 X
11 0 1 475 2 2 2 1 409 d06.gif 1 X
11 0 1 476 2 0 0 1 290 c05.gif 1 X
11 0 1 477 2 2 2 1 549 d02.gif 1 X
11 0 1 478 2 2 2 1 130 d08.gif 1 X
11 0 1 479 2 2 2 1 1219 d04.gif 1 X
11 0 1 480 3 2 2 1 1070 d06.gif 1 X
11 0 1 481 3 2 2 1 410 d02.gif 1 X
11 0 1 482 3 2 0 0 139 c06.gif 1 X
11 0 1 483 3 0 0 1 129 c05.gif 1 X
11 0 1 484 3 0 0 1 194 c01.gif 1 X
11 0 1 485 3 0 0 1 58 c08.gif 1 X
11 0 1 486 3 0 0 1 2 c07.gif 1 X
11 0 1 487 3 0 0 1 15 c03.gif 1 X
11 0 1 488 3 2 2 1 329 d03.gif 1 X
11 0 1 489 3 2 2 1 49 d08.gif 1 X
11 0 1 490 3 2 2 1 176 d07.gif 1 X
11 0 1 491 3 2 2 1 105 d08.gif 1 X
11 0 1 492 3 2 2 1 426 d04.gif 1 X
11 0 1 493 3 2 2 1 48 d05.gif 1 X
11 0 1 494 3 2 2 1 264 d01.gif 1 X
11 0 1 495 3 1 1 1 370 f06.gif 1 X
11 0 1 496 3 1 1 1 289 f03.gif 1 X
11 0 1 497 3 1 1 1 3 f06.gif 1 X
11 0 1 498 3 1 1 1 383 f01.gif 1 X
11 0 1 499 3 1 1 1 145 f08.gif 1 X
11 0 1 500 3 1 1 1 49 f07.gif 1 X
11 0 1 501 3 1 1 1 9 f04.gif 1 X
11 0 1 502 3 1 1 1 62 f08.gif 1 X
11 0 1 503 3 0 0 1 224 c01.gif 1 X
11 0 1 504 3 0 0 1 203 c01.gif 1 X
11 0 1 505 3 0 0 1 234 c05.gif 1 X
11 0 1 506 3 0 0 1 226 c02.gif 1 X
11 0 1 507 3 0 0 1 169 c02.gif 1 X
11 0 1 508 3 0 0 1 242 c03.gif 1 X
11 0 1 509 3 0 0 1 186 c07.gif 1 X
11 0 1 510 3 0 0 1 148 c07.gif 1 X
11 0 1 511 3 0 0 1 313 c06.gif 1 X
11 0 1 512 3 2 2 1 1434 d03.gif 1 X
11 0 1 513 3 0 0 1 292 c08.gif 1 X
11 0 1 514 3 0 0 1 257 c04.gif 1 X
11 0 1 515 3 0 0 1 273 c04.gif 1 X
11 0 1 516 3 1 1 1 450 f01.gif 1 X
11 0 1 517 3 2 1 0 185 f05.gif 1 X
11 0 1 518 3 1 1 1 403 f02.gif 1 X
11 0 1 519 3 1 1 1 226 f02.gif 1 X
11 0 1 520 3 1 1 1 232 f07.gif 1 X
11 0 1 521 3 2 1 0 209 f03.gif 1 X
11 0 1 522 3 1 1 1 201 f08.gif 1 X
11 0 1 523 3 1 1 1 178 f02.gif 1 X
11 0 1 524 3 1 1 1 257 f03.gif 1 X
11 0 1 525 3 1 1 1 242 f04.gif 1 X
11 0 1 526 3 1 1 1 696 f01.gif 1 X
11 0 1 527 3 1 1 1 289 f08.gif 1 X
11 0 1 528 3 1 1 1 233 f07.gif 1 X
11 0 1 529 3 1 1 1 288 f06.gif 1 X
11 0 1 530 3 1 1 1 201 f04.gif 1 X
11 0 1 531 3 1 1 1 136 f07.gif 1 X
11 0 1 532 3 1 1 1 210 f04.gif 1 X
11 0 1 533 3 2 2 1 306 d07.gif 1 X
11 0 1 534 3 2 2 1 634 d02.gif 1 X
11 0 1 535 3 2 2 1 322 d01.gif 1 X
11 0 1 536 3 2 2 1 252 d08.gif 1 X
11 0 1 537 3 2 2 1 346 d05.gif 1 X
11 0 1 538 3 0 0 1 267 c04.gif 1 X
11 0 1 539 3 1 1 1 140 f06.gif 1 X
11 0 1 540 3 0 0 1 58 c04.gif 1 X
11 0 1 541 3 2 2 1 3 d05.gif 1 X
11 0 1 542 3 2 2 1 224 d02.gif 1 X
11 0 1 543 3 2 2 1 268 d05.gif 1 X
11 0 1 544 3 2 2 1 75 d01.gif 1 X
11 0 1 545 3 1 2 0 636 d04.gif 1 X
11 0 1 546 3 2 2 1 75 d04.gif 1 X
11 0 1 547 3 2 2 1 485 d06.gif 1 X
11 0 1 548 3 0 0 1 300 c05.gif 1 X
11 0 1 549 3 2 2 1 266 d02.gif 1 X
11 0 1 550 3 2 2 1 187 d08.gif 1 X
11 0 1 551 3 2 2 1 19 d04.gif 1 X
11 0 1 552 4 2 2 1 1040 d06.gif 1 X
11 0 1 553 4 2 2 1 83 d02.gif 1 X
11 0 1 554 4 0 0 1 106 c06.gif 1 X
11 0 1 555 4 0 0 1 114 c05.gif 1 X
11 0 1 556 4 0 0 1 306 c01.gif 1 X
11 0 1 557 4 0 0 1 224 c08.gif 1 X
11 0 1 558 4 0 0 1 241 c07.gif 1 X
11 0 1 559 4 0 0 1 196 c03.gif 1 X
11 0 1 560 4 2 2 1 148 d03.gif 1 X
11 0 1 561 4 2 2 1 84 d08.gif 1 X
11 0 1 562 4 2 2 1 197 d07.gif 1 X
11 0 1 563 4 2 2 1 9 d08.gif 1 X
11 0 1 564 4 2 2 1 378 d04.gif 1 X
11 0 1 565 4 2 2 1 242 d05.gif 1 X
11 0 1 566 4 2 2 1 1235 d01.gif 1 X
11 0 1 567 4 1 1 1 235 f06.gif 1 X
11 0 1 568 4 2 1 0 179 f03.gif 1 X
11 0 1 569 4 1 1 1 745 f06.gif 1 X
11 0 1 570 4 1 1 1 418 f01.gif 1 X
11 0 1 571 4 1 1 1 451 f08.gif 1 X
11 0 1 572 4 1 1 1 122 f07.gif 1 X
11 0 1 573 4 1 1 1 177 f04.gif 1 X
11 0 1 574 4 1 1 1 153 f08.gif 1 X
11 0 1 575 4 0 0 1 107 c01.gif 1 X
11 0 1 576 4 0 0 1 77 c01.gif 1 X
11 0 1 577 4 0 0 1 11 c05.gif 1 X
11 0 1 578 4 0 0 1 355 c02.gif 1 X
11 0 1 579 4 0 0 1 453 c02.gif 1 X
11 0 1 580 4 0 0 1 226 c03.gif 1 X
11 0 1 581 4 0 0 1 145 c07.gif 1 X
11 0 1 582 4 0 0 1 155 c07.gif 1 X
11 0 1 583 4 0 0 1 202 c06.gif 1 X
11 0 1 584 4 2 2 1 235 d03.gif 1 X
11 0 1 585 4 0 0 1 206 c08.gif 1 X
11 0 1 586 4 0 0 1 300 c04.gif 1 X
11 0 1 587 4 0 0 1 147 c04.gif 1 X
11 0 1 588 4 1 1 1 234 f01.gif 1 X
11 0 1 589 4 1 1 1 442 f05.gif 1 X
11 0 1 590 4 1 1 1 315 f02.gif 1 X
11 0 1 591 4 1 1 1 211 f02.gif 1 X
11 0 1 592 4 1 1 1 147 f07.gif 1 X
11 0 1 593 4 1 1 1 264 f03.gif 1 X
11 0 1 594 4 1 1 1 291 f08.gif 1 X
11 0 1 595 4 1 1 1 317 f02.gif 1 X
11 0 1 596 4 1 1 1 290 f03.gif 1 X
11 0 1 597 4 1 1 1 474 f04.gif 1 X
11 0 1 598 4 1 1 1 460 f01.gif 1 X
11 0 1 599 4 1 1 1 259 f08.gif 1 X
11 0 1 600 4 1 1 1 251 f07.gif 1 X
11 0 1 601 4 1 1 1 371 f06.gif 1 X
11 0 1 602 4 1 1 1 356 f04.gif 1 X
11 0 1 603 4 1 1 1 227 f07.gif 1 X
11 0 1 604 4 1 1 1 99 f04.gif 1 X
11 0 1 605 4 2 2 1 195 d07.gif 1 X
11 0 1 606 4 2 2 1 233 d02.gif 1 X
11 0 1 607 4 2 2 1 179 d01.gif 1 X
11 0 1 608 4 2 2 1 178 d08.gif 1 X
11 0 1 609 4 2 2 1 276 d05.gif 1 X
11 0 1 610 4 0 0 1 74 c04.gif 1 X
11 0 1 611 4 1 1 1 452 f06.gif 1 X
11 0 1 612 4 0 0 1 187 c04.gif 1 X
11 0 1 613 4 2 2 1 258 d05.gif 1 X
11 0 1 614 4 2 2 1 433 d02.gif 1 X
11 0 1 615 4 2 2 1 122 d05.gif 1 X
11 0 1 616 4 2 2 1 520 d01.gif 1 X
11 0 1 617 4 2 2 1 244 d04.gif 1 X
11 0 1 618 4 2 2 1 194 d04.gif 1 X
11 0 1 619 4 2 2 1 210 d06.gif 1 X
11 0 1 620 4 0 0 1 107 c05.gif 1 X
11 0 1 621 4 2 2 1 64 d02.gif 1 X
11 0 1 622 4 2 2 1 97 d08.gif 1 X
11 0 1 623 4 2 2 1 169 d04.gif 1 X
11 0 3 624 10 1 1 1 143 f14.gif 1 0
11 0 3 625 10 0 0 1 254 c15.gif 1 0
11 0 3 626 10 2 2 1 159 d02.gif 1 1
11 0 3 627 10 2 2 1 678 d10.gif 1 0
11 0 3 628 10 0 0 1 223 c03.gif 1 1
11 0 3 629 10 0 0 1 168 c04.gif 1 1
11 0 3 630 10 1 1 1 168 f06.gif 1 1
11 0 3 631 10 0 0 1 128 c05.gif 1 1
11 0 3 632 10 1 1 1 200 f02.gif 1 1
11 0 3 633 10 0 0 1 71 c09.gif 1 0
11 0 3 634 10 0 0 1 119 c06.gif 1 1
11 0 3 635 10 1 1 1 207 f11.gif 1 0
11 0 3 636 10 1 2 0 422 d09.gif 1 0
11 0 3 637 10 1 1 1 167 f01.gif 1 1
11 0 3 638 10 1 1 1 272 f09.gif 1 0
11 0 3 639 10 0 0 1 160 c12.gif 1 0
11 0 3 640 10 1 1 1 189 f16.gif 1 0
11 0 3 641 10 2 2 1 270 d07.gif 1 1
11 0 3 642 10 1 1 1 182 f12.gif 1 0
11 0 3 643 10 1 1 1 206 f13.gif 1 0
11 0 3 644 10 0 0 1 238 c11.gif 1 0
11 0 3 645 10 0 0 1 159 c02.gif 1 1
11 0 3 646 10 2 2 1 328 d15.gif 1 0
11 0 3 647 10 2 2 1 343 d08.gif 1 1
11 0 3 648 10 0 0 1 238 c07.gif 1 1
11 0 3 649 10 2 2 1 367 d13.gif 1 0
11 0 3 650 10 1 1 1 234 f05.gif 1 1
11 0 3 651 10 0 0 1 153 c10.gif 1 0
11 0 3 652 10 1 1 1 80 f10.gif 1 0
11 0 3 653 10 0 0 1 80 c01.gif 1 1
11 0 3 654 10 1 1 1 177 f04.gif 1 1
11 0 3 655 10 2 2 1 374 d12.gif 1 0
11 0 3 656 10 2 2 1 399 d04.gif 1 1
11 0 3 657 10 1 1 1 137 f07.gif 1 1
11 0 3 658 10 2 2 1 168 d05.gif 1 1
11 0 3 659 10 1 1 1 151 f08.gif 1 1
11 0 3 660 10 2 2 1 128 d11.gif 1 0
11 0 3 661 10 2 2 1 112 d03.gif 1 1
11 0 3 662 10 1 1 1 87 f15.gif 1 0
11 0 3 663 10 1 2 0 239 d06.gif 1 1
11 0 3 664 10 2 2 1 113 d01.gif 1 1
11 0 3 665 10 2 2 1 112 d14.gif 1 0
11 0 3 666 10 0 0 1 105 c13.gif 1 0
11 0 3 667 10 0 0 1 113 c14.gif 1 0
11 0 3 668 10 0 0 1 170 c16.gif 1 0
11 0 3 669 10 0 0 1 98 c08.gif 1 1
11 0 3 670 10 2 2 1 72 d16.gif 1 0
11 0 3 671 10 1 1 1 231 f03.gif 1 1
12 1 1 0 1 0 0 1 3042 c05.gif 1 X 
12 1 1 1 1 1 0 0 1188 c02.gif 1 X 
12 1 1 2 1 1 1 1 1239 f05.gif 1 X 
12 1 1 3 1 2 1 0 1214 f06.gif 1 X 
12 1 1 4 1 2 1 0 1037 f02.gif 1 X 
12 1 1 5 1 1 1 1 1759 f06.gif 1 X 
12 1 1 6 1 2 2 1 1041 e06.gif 1 X 
12 1 1 7 1 0 0 1 430 c03.gif 1 X 
12 1 1 8 1 0 0 1 655 c04.gif 1 X 
12 1 1 9 1 1 2 0 1053 e05.gif 1 X 
12 1 1 10 1 2 2 1 861 e04.gif 1 X 
12 1 1 11 1 1 2 0 1118 e08.gif 1 X 
12 1 1 12 1 2 2 1 789 e03.gif 1 X 
12 1 1 13 1 2 2 1 902 e05.gif 1 X 
12 1 1 14 1 2 2 1 775 e02.gif 1 X 
12 1 1 15 1 2 2 1 1478 e08.gif 1 X 
12 1 1 16 1 2 2 1 406 e07.gif 1 X 
12 1 1 17 1 2 2 1 390 e03.gif 1 X 
12 1 1 18 1 2 0 0 646 c07.gif 1 X 
12 1 1 19 1 0 0 1 341 c08.gif 1 X 
12 1 1 20 1 0 0 1 294 c07.gif 1 X 
12 1 1 21 1 0 0 1 239 c06.gif 1 X 
12 1 1 22 1 0 0 1 222 c04.gif 1 X 
12 1 1 23 1 0 0 1 79 c08.gif 1 X 
12 1 1 24 1 0 0 1 174 c03.gif 1 X 
12 1 1 25 1 0 0 1 303 c02.gif 1 X 
12 1 1 26 1 0 0 1 221 c01.gif 1 X 
12 1 1 27 1 0 0 1 197 c04.gif 1 X 
12 1 1 28 1 0 0 1 222 c02.gif 1 X 
12 1 1 29 1 0 0 1 47 c06.gif 1 X 
12 1 1 30 1 0 0 1 3981 c06.gif 1 X 
12 1 1 31 1 0 0 1 135 c02.gif 1 X 
12 1 1 32 1 0 0 1 70 c01.gif 1 X 
12 1 1 33 1 0 0 1 198 c03.gif 1 X 
12 1 1 34 1 0 0 1 6 c07.gif 1 X 
12 1 1 35 1 0 0 1 684 c05.gif 1 X 
12 1 1 36 1 2 1 0 749 f08.gif 1 X 
12 1 1 37 1 1 2 0 934 e01.gif 1 X 
12 1 1 38 1 2 2 1 854 e08.gif 1 X 
12 1 1 39 1 2 2 1 535 e06.gif 1 X 
12 1 1 40 1 2 2 1 327 e06.gif 1 X 
12 1 1 41 1 2 1 0 78 f03.gif 1 X 
12 1 1 42 1 1 1 1 637 f01.gif 1 X 
12 1 1 43 1 0 0 1 782 c04.gif 1 X 
12 1 1 44 1 0 0 1 1215 c03.gif 1 X 
12 1 1 45 1 1 1 1 1005 f04.gif 1 X 
12 1 1 46 1 1 1 1 597 f02.gif 1 X 
12 1 1 47 1 1 1 1 302 f03.gif 1 X 
12 1 1 48 1 1 1 1 262 f06.gif 1 X 
12 1 1 49 1 1 1 1 519 f07.gif 1 X 
12 1 1 50 1 1 1 1 614 f07.gif 1 X 
12 1 1 51 1 2 1 0 775 f08.gif 1 X 
12 1 1 52 1 1 1 1 331 f02.gif 1 X 
12 1 1 53 1 1 1 1 406 f08.gif 1 X 
12 1 1 54 1 1 1 1 126 f01.gif 1 X 
12 1 1 55 1 1 1 1 198 f07.gif 1 X 
12 1 1 56 1 1 1 1 343 f08.gif 1 X 
12 1 1 57 1 0 0 1 326 c08.gif 1 X 
12 1 1 58 1 0 0 1 190 c01.gif 1 X 
12 1 1 59 1 1 1 1 30 f01.gif 1 X 
12 1 1 60 1 1 1 1 885 f04.gif 1 X 
12 1 1 61 1 1 2 0 808 e07.gif 1 X 
12 1 1 62 1 2 1 0 1300 f06.gif 1 X 
12 1 1 63 1 2 2 1 350 e08.gif 1 X 
12 1 1 64 1 2 2 1 814 e04.gif 1 X 
12 1 1 65 1 2 2 1 447 e01.gif 1 X 
12 1 1 66 1 1 1 1 342 f07.gif 1 X 
12 1 1 67 1 1 1 1 255 f05.gif 1 X 
12 1 1 68 1 1 1 1 653 f05.gif 1 X 
12 1 1 69 1 1 1 1 159 f03.gif 1 X 
12 1 1 70 1 1 1 1 174 f02.gif 1 X 
12 1 1 71 1 1 1 1 1158 f04.gif 1 X 
12 1 1 72 2 1 0 0 3545 c05.gif 1 X 
12 1 1 73 2 1 0 0 2324 c02.gif 1 X 
12 1 1 74 2 1 1 1 101 f05.gif 1 X 
12 1 1 75 2 1 1 1 525 f06.gif 1 X 
12 1 1 76 2 1 1 1 262 f02.gif 1 X 
12 1 1 77 2 1 1 1 142 f06.gif 1 X 
12 1 1 78 2 1 2 0 286 e06.gif 1 X 
12 1 1 79 2 0 0 1 254 c03.gif 1 X 
12 1 1 80 2 0 0 1 565 c04.gif 1 X 
12 1 1 81 2 1 2 0 783 e05.gif 1 X 
12 1 1 82 2 2 2 1 335 e04.gif 1 X 
12 1 1 83 2 2 2 1 255 e08.gif 1 X 
12 1 1 84 2 2 2 1 527 e03.gif 1 X 
12 1 1 85 2 2 2 1 943 e05.gif 1 X 
12 1 1 86 2 2 2 1 206 e02.gif 1 X 
12 1 1 87 2 2 2 1 65 e08.gif 1 X 
12 1 1 88 2 2 2 1 95 e07.gif 1 X 
12 1 1 89 2 2 2 1 31 e03.gif 1 X 
12 1 1 90 2 0 0 1 550 c07.gif 1 X 
12 1 1 91 2 0 0 1 431 c08.gif 1 X 
12 1 1 92 2 0 0 1 534 c07.gif 1 X 
12 1 1 93 2 0 0 1 599 c06.gif 1 X 
12 1 1 94 2 0 0 1 397 c04.gif 1 X 
12 1 1 95 2 0 0 1 222 c08.gif 1 X 
12 1 1 96 2 0 0 1 478 c03.gif 1 X 
12 1 1 97 2 0 0 1 134 c02.gif 1 X 
12 1 1 98 2 0 0 1 85 c01.gif 1 X 
12 1 1 99 2 0 0 1 485 c04.gif 1 X 
12 1 1 100 2 0 0 1 278 c02.gif 1 X 
12 1 1 101 2 0 0 1 422 c06.gif 1 X 
12 1 1 102 2 0 0 1 349 c06.gif 1 X 
12 1 1 103 2 0 0 1 214 c02.gif 1 X 
12 1 1 104 2 0 0 1 917 c01.gif 1 X 
12 1 1 105 2 0 0 1 142 c03.gif 1 X 
12 1 1 106 2 0 0 1 295 c07.gif 1 X 
12 1 1 107 2 0 0 1 198 c05.gif 1 X 
12 1 1 108 2 1 1 1 2823 f08.gif 1 X 
12 1 1 109 2 2 2 1 606 e01.gif 1 X 
12 1 1 110 2 2 2 1 343 e08.gif 1 X 
12 1 1 111 2 2 2 1 718 e06.gif 1 X 
12 1 1 112 2 2 2 1 335 e06.gif 1 X 
12 1 1 113 2 1 1 1 643 f03.gif 1 X 
12 1 1 114 2 1 1 1 262 f01.gif 1 X 
12 1 1 115 2 0 0 1 158 c04.gif 1 X 
12 1 1 116 2 0 0 1 158 c03.gif 1 X 
12 1 1 117 2 1 1 1 1198 f04.gif 1 X 
12 1 1 118 2 1 1 1 407 f02.gif 1 X 
12 1 1 119 2 1 1 1 206 f03.gif 1 X 
12 1 1 120 2 1 1 1 334 f06.gif 1 X 
12 1 1 121 2 1 1 1 343 f07.gif 1 X 
12 1 1 122 2 1 1 1 310 f07.gif 1 X 
12 1 1 123 2 1 1 1 334 f08.gif 1 X 
12 1 1 124 2 1 1 1 158 f02.gif 1 X 
12 1 1 125 2 1 1 1 207 f08.gif 1 X 
12 1 1 126 2 1 1 1 542 f01.gif 1 X 
12 1 1 127 2 1 1 1 142 f07.gif 1 X 
12 1 1 128 2 1 1 1 166 f08.gif 1 X 
12 1 1 129 2 0 0 1 22 c08.gif 1 X 
12 1 1 130 2 0 0 1 166 c01.gif 1 X 
12 1 1 131 2 1 1 1 126 f01.gif 1 X 
12 1 1 132 2 1 1 1 927 f04.gif 1 X 
12 1 1 133 2 1 2 0 719 e07.gif 1 X 
12 1 1 134 2 1 1 1 197 f06.gif 1 X 
12 1 1 135 2 2 2 1 199 e08.gif 1 X 
12 1 1 136 2 2 2 1 606 e04.gif 1 X 
12 1 1 137 2 2 2 1 109 e01.gif 1 X 
12 1 1 138 2 2 1 0 78 f07.gif 1 X 
12 1 1 139 2 1 1 1 181 f05.gif 1 X 
12 1 1 140 2 1 1 1 300 f05.gif 1 X 
12 1 1 141 2 1 1 1 206 f03.gif 1 X 
12 1 1 142 2 1 1 1 142 f02.gif 1 X 
12 1 1 143 2 1 1 1 166 f04.gif 1 X 
12 1 1 144 3 0 0 1 291 c05.gif 1 X 
12 1 1 145 3 0 0 1 517 c02.gif 1 X 
12 1 1 146 3 1 1 1 663 f05.gif 1 X 
12 1 1 147 3 1 1 1 206 f06.gif 1 X 
12 1 1 148 3 1 1 1 71 f02.gif 1 X 
12 1 1 149 3 1 1 1 48 f06.gif 1 X 
12 1 1 150 3 1 2 0 231 e06.gif 1 X 
12 1 1 151 3 0 0 1 125 c03.gif 1 X 
12 1 1 152 3 0 0 1 342 c04.gif 1 X 
12 1 1 153 3 0 2 0 998 e05.gif 1 X 
12 1 1 154 3 2 2 1 639 e04.gif 1 X 
12 1 1 155 3 2 2 1 343 e08.gif 1 X 
12 1 1 156 3 2 2 1 165 e03.gif 1 X 
12 1 1 157 3 2 2 1 182 e05.gif 1 X 
12 1 1 158 3 2 2 1 159 e02.gif 1 X 
12 1 1 159 3 2 2 1 112 e08.gif 1 X 
12 1 1 160 3 2 2 1 208 e07.gif 1 X 
12 1 1 161 3 2 2 1 14 e03.gif 1 X 
12 1 1 162 3 0 0 1 22 c07.gif 1 X 
12 1 1 163 3 0 0 1 279 c08.gif 1 X 
12 1 1 164 3 0 0 1 112 c07.gif 1 X 
12 1 1 165 3 0 0 1 160 c06.gif 1 X 
12 1 1 166 3 0 0 1 23 c04.gif 1 X 
12 1 1 167 3 0 0 1 309 c08.gif 1 X 
12 1 1 168 3 0 0 1 191 c03.gif 1 X 
12 1 1 169 3 0 0 1 199 c02.gif 1 X 
12 1 1 170 3 0 0 1 160 c01.gif 1 X 
12 1 1 171 3 0 0 1 46 c04.gif 1 X 
12 1 1 172 3 0 0 1 88 c02.gif 1 X 
12 1 1 173 3 0 0 1 167 c06.gif 1 X 
12 1 1 174 3 0 0 1 702 c06.gif 1 X 
12 1 1 175 3 0 0 1 440 c02.gif 1 X 
12 1 1 176 3 0 0 1 280 c01.gif 1 X 
12 1 1 177 3 0 0 1 639 c03.gif 1 X 
12 1 1 178 3 0 0 1 487 c07.gif 1 X 
12 1 1 179 3 0 0 1 417 c05.gif 1 X 
12 1 1 180 3 1 1 1 1184 f08.gif 1 X 
12 1 1 181 3 2 2 1 678 e01.gif 1 X 
12 1 1 182 3 2 2 1 198 e08.gif 1 X 
12 1 1 183 3 2 2 1 230 e06.gif 1 X 
12 1 1 184 3 2 2 1 425 e06.gif 1 X 
12 1 1 185 3 1 1 1 959 f03.gif 1 X 
12 1 1 186 3 1 1 1 208 f01.gif 1 X 
12 1 1 187 3 0 0 1 149 c04.gif 1 X 
12 1 1 188 3 0 0 1 110 c03.gif 1 X 
12 1 1 189 3 1 1 1 343 f04.gif 1 X 
12 1 1 190 3 1 1 1 216 f02.gif 1 X 
12 1 1 191 3 1 1 1 254 f03.gif 1 X 
12 1 1 192 3 1 1 1 246 f06.gif 1 X 
12 1 1 193 3 1 1 1 174 f07.gif 1 X 
12 1 1 194 3 1 1 1 209 f07.gif 1 X 
12 1 1 195 3 1 1 1 79 f08.gif 1 X 
12 1 1 196 3 1 1 1 7 f02.gif 1 X 
12 1 1 197 3 1 1 1 132 f08.gif 1 X 
12 1 1 198 3 1 1 1 46 f01.gif 1 X 
12 1 1 199 3 1 1 1 38 f07.gif 1 X 
12 1 1 200 3 1 1 1 591 f08.gif 1 X 
12 1 1 201 3 0 0 1 505 c08.gif 1 X 
12 1 1 202 3 0 0 1 198 c01.gif 1 X 
12 1 1 203 3 1 1 1 46 f01.gif 1 X 
12 1 1 204 3 1 1 1 359 f04.gif 1 X 
12 1 1 205 3 2 2 1 2094 e07.gif 1 X 
12 1 1 206 3 1 1 1 71 f06.gif 1 X 
12 1 1 207 3 2 2 1 135 e08.gif 1 X 
12 1 1 208 3 1 2 0 863 e04.gif 1 X 
12 1 1 209 3 2 2 1 300 e01.gif 1 X 
12 1 1 210 3 1 1 1 2766 f07.gif 1 X 
12 1 1 211 3 1 1 1 1166 f05.gif 1 X 
12 1 1 212 3 1 1 1 174 f05.gif 1 X 
12 1 1 213 3 1 1 1 157 f03.gif 1 X 
12 1 1 214 3 1 1 1 63 f02.gif 1 X 
12 1 1 215 3 1 1 1 215 f04.gif 1 X 
12 1 1 216 4 0 0 1 162 c05.gif 1 X 
12 1 1 217 4 0 0 1 815 c02.gif 1 X 
12 1 1 218 4 1 1 1 285 f05.gif 1 X 
12 1 1 219 4 1 1 1 70 f06.gif 1 X 
12 1 1 220 4 1 1 1 46 f02.gif 1 X 
12 1 1 221 4 1 1 1 550 f06.gif 1 X 
12 1 1 222 4 2 2 1 319 e06.gif 1 X 
12 1 1 223 4 0 0 1 22 c03.gif 1 X 
12 1 1 224 4 0 0 1 78 c04.gif 1 X 
12 1 1 225 4 2 2 1 1287 e05.gif 1 X 
12 1 1 226 4 2 2 1 238 e04.gif 1 X 
12 1 1 227 4 2 2 1 158 e08.gif 1 X 
12 1 1 228 4 2 2 1 70 e03.gif 1 X 
12 1 1 229 4 2 2 1 214 e05.gif 1 X 
12 1 1 230 4 2 2 1 126 e02.gif 1 X 
12 1 1 231 4 2 2 1 30 e08.gif 1 X 
12 1 1 232 4 2 2 1 63 e07.gif 1 X 
12 1 1 233 4 2 2 1 487 e03.gif 1 X 
12 1 1 234 4 0 0 1 29 c07.gif 1 X 
12 1 1 235 4 0 0 1 134 c08.gif 1 X 
12 1 1 236 4 0 0 1 246 c07.gif 1 X 
12 1 1 237 4 0 0 1 118 c06.gif 1 X 
12 1 1 238 4 0 0 1 119 c04.gif 1 X 
12 1 1 239 4 0 0 1 446 c08.gif 1 X 
12 1 1 240 4 0 0 1 174 c03.gif 1 X 
12 1 1 241 4 0 0 1 118 c02.gif 1 X 
12 1 1 242 4 0 0 1 294 c01.gif 1 X 
12 1 1 243 4 0 0 1 158 c04.gif 1 X 
12 1 1 244 4 0 0 1 165 c02.gif 1 X 
12 1 1 245 4 0 0 1 190 c06.gif 1 X 
12 1 1 246 4 0 0 1 14 c06.gif 1 X 
12 1 1 247 4 0 0 1 94 c02.gif 1 X 
12 1 1 248 4 0 0 1 88 c01.gif 1 X 
12 1 1 249 4 0 0 1 62 c03.gif 1 X 
12 1 1 250 4 0 0 1 111 c07.gif 1 X 
12 1 1 251 4 0 0 1 71 c05.gif 1 X 
12 1 1 252 4 1 1 1 214 f08.gif 1 X 
12 1 1 253 4 2 2 1 367 e01.gif 1 X 
12 1 1 254 4 2 2 1 47 e08.gif 1 X 
12 1 1 255 4 2 2 1 54 e06.gif 1 X 
12 1 1 256 4 2 2 1 806 e06.gif 1 X 
12 1 1 257 4 1 1 1 414 f03.gif 1 X 
12 1 1 258 4 1 1 1 54 f01.gif 1 X 
12 1 1 259 4 0 0 1 47 c04.gif 1 X 
12 1 1 260 4 0 0 1 182 c03.gif 1 X 
12 1 1 261 4 1 1 1 255 f04.gif 1 X 
12 1 1 262 4 1 1 1 46 f02.gif 1 X 
12 1 1 263 4 1 1 1 78 f03.gif 1 X 
12 1 1 264 4 1 1 1 159 f06.gif 1 X 
12 1 1 265 4 1 1 1 96 f07.gif 1 X 
12 1 1 266 4 1 1 1 494 f07.gif 1 X 
12 1 1 267 4 1 1 1 302 f08.gif 1 X 
12 1 1 268 4 1 1 1 62 f02.gif 1 X 
12 1 1 269 4 1 1 1 30 f08.gif 1 X 
12 1 1 270 4 1 1 1 183 f01.gif 1 X 
12 1 1 271 4 1 1 1 30 f07.gif 1 X 
12 1 1 272 4 1 1 1 30 f08.gif 1 X 
12 1 1 273 4 0 0 1 62 c08.gif 1 X 
12 1 1 274 4 0 0 1 62 c01.gif 1 X 
12 1 1 275 4 1 1 1 94 f01.gif 1 X 
12 1 1 276 4 1 1 1 270 f04.gif 1 X 
12 1 1 277 4 2 2 1 69 e07.gif 1 X 
12 1 1 278 4 1 1 1 118 f06.gif 1 X 
12 1 1 279 4 2 2 1 5 e08.gif 1 X 
12 1 1 280 4 2 2 1 387 e04.gif 1 X 
12 1 1 281 4 2 2 1 478 e01.gif 1 X 
12 1 1 282 4 1 1 1 118 f07.gif 1 X 
12 1 1 283 4 2 1 0 54 f05.gif 1 X 
12 1 1 284 4 1 1 1 430 f05.gif 1 X 
12 1 1 285 4 1 1 1 188 f03.gif 1 X 
12 1 1 286 4 1 1 1 32 f02.gif 1 X 
12 1 1 287 4 1 1 1 597 f04.gif 1 X 
12 1 3 288 5 1 1 1 3466 f14.gif 1 0
12 1 3 289 5 0 0 1 244 c14.gif 1 0
12 1 3 290 5 0 0 1 204 c02.gif 1 1
12 1 3 291 5 2 2 1 188 e03.gif 1 1
12 1 3 292 5 1 1 1 123 f01.gif 1 1
12 1 3 293 5 1 2 0 180 e14.gif 1 0
12 1 3 294 5 2 2 1 956 e05.gif 1 1
12 1 3 295 5 0 0 1 93 c05.gif 1 1
12 1 3 296 5 1 2 0 260 e16.gif 1 0
12 1 3 297 5 1 1 1 148 f07.gif 1 1
12 1 3 298 5 1 1 1 284 f09.gif 1 0
12 1 3 299 5 1 1 1 149 f08.gif 1 1
12 1 3 300 5 0 0 1 164 c10.gif 1 0
12 1 3 301 5 0 0 1 148 c07.gif 1 1
12 1 3 302 5 0 0 1 108 c09.gif 1 0
12 1 3 303 5 1 1 1 317 f03.gif 1 1
12 1 3 304 5 2 1 0 330 f13.gif 1 0
12 1 3 305 5 0 0 1 28 c06.gif 1 1
12 1 3 306 5 0 0 1 131 c16.gif 1 0
12 1 3 307 5 2 2 1 869 e11.gif 1 0
12 1 3 308 5 2 2 1 259 e10.gif 1 0
12 1 3 309 5 0 0 1 1372 c13.gif 1 0
12 1 3 310 5 0 0 1 155 c11.gif 1 0
12 1 3 311 5 1 1 1 356 f02.gif 1 1
12 1 3 312 5 2 2 1 908 e09.gif 1 0
12 1 3 313 5 0 0 1 83 c08.gif 1 1
12 1 3 314 5 2 2 1 963 e12.gif 1 0
12 1 3 315 5 1 1 1 604 f10.gif 1 0
12 1 3 316 5 0 0 1 212 c01.gif 1 1
12 1 3 317 5 0 0 1 149 c04.gif 1 1
12 1 3 318 5 1 1 1 108 f04.gif 1 1
12 1 3 319 5 2 2 1 37 e08.gif 1 1
12 1 3 320 5 1 1 1 357 f05.gif 1 1
12 1 3 321 5 2 2 1 220 e04.gif 1 1
12 1 3 322 5 1 1 1 180 f06.gif 1 1
12 1 3 323 5 1 1 1 109 f12.gif 1 0
12 1 3 324 5 0 0 1 252 c12.gif 1 0
12 1 3 325 5 2 2 1 660 e13.gif 1 0
12 1 3 326 5 1 1 1 469 f15.gif 1 0
12 1 3 327 5 2 2 1 156 e01.gif 1 1
12 1 3 328 5 2 2 1 404 e15.gif 1 0
12 1 3 329 5 0 0 1 132 c03.gif 1 1
12 1 3 330 5 0 0 1 261 c15.gif 1 0
12 1 3 331 5 1 1 1 125 f16.gif 1 0
12 1 3 332 5 2 2 1 213 e02.gif 1 1
12 1 3 333 5 2 2 1 124 e06.gif 1 1
12 1 3 334 5 2 2 1 283 e07.gif 1 1
12 1 3 335 5 1 1 1 381 f11.gif 1 0
12 1 1 336 1 0 0 1 590 a01.gif 0 X
12 1 1 337 1 1 0 0 873 a03.gif 0 X
12 1 1 338 1 0 0 1 254 a02.gif 0 X
12 1 1 339 1 0 0 1 278 a06.gif 0 X
12 1 1 340 1 0 0 1 14 a06.gif 0 X
12 1 1 341 1 0 2 0 1254 d06.gif 0 X
12 1 1 342 1 2 2 1 1070 d03.gif 0 X
12 1 1 343 1 2 1 0 79 b08.gif 0 X
12 1 1 344 1 1 2 0 157 d01.gif 0 X
12 1 1 345 1 2 2 1 421 d03.gif 0 X
12 1 1 346 1 2 1 0 406 b06.gif 0 X
12 1 1 347 1 2 2 1 238 d03.gif 0 X
12 1 1 348 1 0 0 1 593 a05.gif 0 X
12 1 1 349 1 2 2 1 1047 d07.gif 0 X
12 1 1 350 1 0 0 1 262 a04.gif 0 X
12 1 1 351 1 1 1 1 551 b08.gif 0 X
12 1 1 352 1 0 0 1 159 a02.gif 0 X
12 1 1 353 1 2 2 1 287 d07.gif 0 X
12 1 1 354 1 2 2 1 374 d07.gif 0 X
12 1 1 355 1 1 1 1 1288 b07.gif 0 X
12 1 1 356 1 2 1 0 865 b03.gif 0 X
12 1 1 357 1 2 2 1 200 d03.gif 0 X
12 1 1 358 1 1 1 1 135 b06.gif 0 X
12 1 1 359 1 0 0 1 46 a03.gif 0 X
12 1 1 360 1 0 2 0 599 d04.gif 0 X
12 1 1 361 1 1 1 1 519 b05.gif 0 X
12 1 1 362 1 1 2 0 359 d06.gif 0 X
12 1 1 363 1 1 0 0 1861 a08.gif 0 X
12 1 1 364 1 0 1 0 437 b07.gif 0 X
12 1 1 365 1 0 0 1 125 a08.gif 0 X
12 1 1 366 1 0 0 1 54 a07.gif 0 X
12 1 1 367 1 1 2 0 272 d05.gif 0 X
12 1 1 368 1 2 1 0 175 b01.gif 0 X
12 1 1 369 1 0 0 1 45 a04.gif 0 X
12 1 1 370 1 0 0 1 254 a07.gif 0 X
12 1 1 371 1 0 1 0 78 b02.gif 0 X
12 1 1 372 1 1 1 1 471 b02.gif 0 X
12 1 1 373 1 1 2 0 1670 d08.gif 0 X
12 1 1 374 1 1 1 1 2261 b08.gif 0 X
12 1 1 375 1 2 2 1 597 d08.gif 0 X
12 1 1 376 1 2 1 0 631 b03.gif 0 X
12 1 1 377 1 1 2 0 694 d04.gif 0 X
12 1 1 378 1 2 0 0 821 a08.gif 0 X
12 1 1 379 1 2 2 1 468 d02.gif 0 X
12 1 1 380 1 2 1 0 399 b01.gif 0 X
12 1 1 381 1 1 2 0 894 d05.gif 0 X
12 1 1 382 1 0 0 1 69 a05.gif 0 X
12 1 1 383 1 2 1 0 286 b01.gif 0 X
12 1 1 384 1 0 0 1 94 a04.gif 0 X
12 1 1 385 1 2 2 1 1158 d08.gif 0 X
12 1 1 386 1 2 0 0 759 a07.gif 0 X
12 1 1 387 1 0 1 0 334 b07.gif 0 X
12 1 1 388 1 2 1 0 382 b02.gif 0 X
12 1 1 389 1 1 1 1 189 b02.gif 0 X
12 1 1 390 1 2 2 1 471 d01.gif 0 X
12 1 1 391 1 1 0 0 1358 a03.gif 0 X
12 1 1 392 1 0 0 1 168 a01.gif 0 X
12 1 1 393 1 2 2 1 958 d02.gif 0 X
12 1 1 394 1 0 0 1 86 a03.gif 0 X
12 1 1 395 1 2 2 1 271 d01.gif 0 X
12 1 1 396 1 2 1 0 183 b04.gif 0 X
12 1 1 397 1 0 0 1 183 a05.gif 0 X
12 1 1 398 1 0 1 0 991 b05.gif 0 X
12 1 1 399 1 2 2 1 934 d08.gif 0 X
12 1 1 400 1 2 2 1 150 d06.gif 0 X
12 1 1 401 1 0 0 1 198 a07.gif 0 X
12 1 1 402 1 2 1 0 206 b04.gif 0 X
12 1 1 403 1 0 0 1 230 a04.gif 0 X
12 1 1 404 1 2 1 0 150 b03.gif 0 X
12 1 1 405 1 1 1 1 350 b05.gif 0 X
12 1 1 406 1 0 0 1 61 a06.gif 0 X
12 1 1 407 1 2 2 1 1021 d05.gif 0 X
12 1 1 408 2 0 0 1 474 a01.gif 0 X
12 1 1 409 2 0 0 1 1063 a03.gif 0 X
12 1 1 410 2 0 0 1 86 a02.gif 0 X
12 1 1 411 2 0 0 1 1086 a06.gif 0 X
12 1 1 412 2 0 0 1 622 a06.gif 0 X
12 1 1 413 2 2 2 1 287 d06.gif 0 X
12 1 1 414 2 1 2 0 605 d03.gif 0 X
12 1 1 415 2 1 1 1 1574 b08.gif 0 X
12 1 1 416 2 2 2 1 110 d01.gif 0 X
12 1 1 417 2 1 2 0 549 d03.gif 0 X
12 1 1 418 2 1 1 1 1278 b06.gif 0 X
12 1 1 419 2 1 2 0 189 d03.gif 0 X
12 1 1 420 2 0 0 1 119 a05.gif 0 X
12 1 1 421 2 2 2 1 2750 d07.gif 0 X
12 1 1 422 2 0 0 1 96 a04.gif 0 X
12 1 1 423 2 2 1 0 2038 b08.gif 0 X
12 1 1 424 2 0 0 1 104 a02.gif 0 X
12 1 1 425 2 2 2 1 694 d07.gif 0 X
12 1 1 426 2 2 2 1 102 d07.gif 0 X
12 1 1 427 2 2 1 0 865 b07.gif 0 X
12 1 1 428 2 2 1 0 470 b03.gif 0 X
12 1 1 429 2 1 2 0 189 d03.gif 0 X
12 1 1 430 2 1 1 1 39 b06.gif 0 X
12 1 1 431 2 0 0 1 990 a03.gif 0 X
12 1 1 432 2 2 2 1 2558 d04.gif 0 X
12 1 1 433 2 1 1 1 1789 b05.gif 0 X
12 1 1 434 2 2 2 1 270 d06.gif 0 X
12 1 1 435 2 0 0 1 518 a08.gif 0 X
12 1 1 436 2 1 1 1 302 b07.gif 0 X
12 1 1 437 2 2 0 0 687 a08.gif 0 X
12 1 1 438 2 0 0 1 454 a07.gif 0 X
12 1 1 439 2 2 2 1 1246 d05.gif 0 X
12 1 1 440 2 1 1 1 215 b01.gif 0 X
12 1 1 441 2 0 0 1 126 a04.gif 0 X
12 1 1 442 2 0 0 1 373 a07.gif 0 X
12 1 1 443 2 0 1 0 1239 b02.gif 0 X
12 1 1 444 2 1 1 1 77 b02.gif 0 X
12 1 1 445 2 2 2 1 558 d08.gif 0 X
12 1 1 446 2 1 1 1 72 b08.gif 0 X
12 1 1 447 2 2 2 1 94 d08.gif 0 X
12 1 1 448 2 1 1 1 69 b03.gif 0 X
12 1 1 449 2 1 2 0 1621 d04.gif 0 X
12 1 1 450 2 2 0 0 221 a08.gif 0 X
12 1 1 451 2 2 2 1 62 d02.gif 0 X
12 1 1 452 2 1 1 1 374 b01.gif 0 X
12 1 1 453 2 2 2 1 117 d05.gif 0 X
12 1 1 454 2 0 0 1 174 a05.gif 0 X
12 1 1 455 2 1 1 1 1412 b01.gif 0 X
12 1 1 456 2 0 0 1 101 a04.gif 0 X
12 1 1 457 2 2 2 1 216 d08.gif 0 X
12 1 1 458 2 2 0 0 279 a07.gif 0 X
12 1 1 459 2 1 1 1 311 b07.gif 0 X
12 1 1 460 2 1 1 1 497 b02.gif 0 X
12 1 1 461 2 1 1 1 699 b02.gif 0 X
12 1 1 462 2 1 2 0 342 d01.gif 0 X
12 1 1 463 2 0 0 1 486 a03.gif 0 X
12 1 1 464 2 0 0 1 190 a01.gif 0 X
12 1 1 465 2 2 2 1 631 d02.gif 0 X
12 1 1 466 2 0 0 1 232 a03.gif 0 X
12 1 1 467 2 1 2 0 1246 d01.gif 0 X
12 1 1 468 2 2 1 0 383 b04.gif 0 X
12 1 1 469 2 0 0 1 45 a05.gif 0 X
12 1 1 470 2 1 1 1 694 b05.gif 0 X
12 1 1 471 2 2 2 1 383 d08.gif 0 X
12 1 1 472 2 2 2 1 112 d06.gif 0 X
12 1 1 473 2 0 0 1 198 a07.gif 0 X
12 1 1 474 2 1 1 1 671 b04.gif 0 X
12 1 1 475 2 0 0 1 159 a04.gif 0 X
12 1 1 476 2 1 1 1 224 b03.gif 0 X
12 1 1 477 2 1 1 1 654 b05.gif 0 X
12 1 1 478 2 0 0 1 39 a06.gif 0 X
12 1 1 479 2 1 2 0 462 d05.gif 0 X
12 1 1 480 3 1 0 0 6154 a01.gif 0 X
12 1 1 481 3 0 0 1 783 a03.gif 0 X
12 1 1 482 3 0 0 1 29 a02.gif 0 X
12 1 1 483 3 0 0 1 639 a06.gif 0 X
12 1 1 484 3 0 0 1 30 a06.gif 0 X
12 1 1 485 3 2 2 1 590 d06.gif 0 X
12 1 1 486 3 2 2 1 446 d03.gif 0 X
12 1 1 487 3 1 1 1 815 b08.gif 0 X
12 1 1 488 3 1 2 0 174 d01.gif 0 X
12 1 1 489 3 2 2 1 407 d03.gif 0 X
12 1 1 490 3 1 1 1 103 b06.gif 0 X
12 1 1 491 3 2 2 1 119 d03.gif 0 X
12 1 1 492 3 0 0 1 39 a05.gif 0 X
12 1 1 493 3 2 2 1 838 d07.gif 0 X
12 1 1 494 3 0 0 1 46 a04.gif 0 X
12 1 1 495 3 1 1 1 215 b08.gif 0 X
12 1 1 496 3 0 0 1 606 a02.gif 0 X
12 1 1 497 3 2 2 1 342 d07.gif 0 X
12 1 1 498 3 2 2 1 550 d07.gif 0 X
12 1 1 499 3 1 1 1 535 b07.gif 0 X
12 1 1 500 3 1 1 1 134 b03.gif 0 X
12 1 1 501 3 2 2 1 446 d03.gif 0 X
12 1 1 502 3 1 1 1 46 b06.gif 0 X
12 1 1 503 3 0 0 1 39 a03.gif 0 X
12 1 1 504 3 1 2 0 1110 d04.gif 0 X
12 1 1 505 3 2 1 0 375 b05.gif 0 X
12 1 1 506 3 2 2 1 1117 d06.gif 0 X
12 1 1 507 3 0 0 1 598 a08.gif 0 X
12 1 1 508 3 1 1 1 814 b07.gif 0 X
12 1 1 509 3 0 0 1 214 a08.gif 0 X
12 1 1 510 3 0 0 1 5958 a07.gif 0 X
12 1 1 511 3 2 2 1 3038 d05.gif 0 X
12 1 1 512 3 1 1 1 743 b01.gif 0 X
12 1 1 513 3 0 0 1 54 a04.gif 0 X
12 1 1 514 3 0 0 1 22 a07.gif 0 X
12 1 1 515 3 1 1 1 3294 b02.gif 0 X
12 1 1 516 3 1 1 1 845 b02.gif 0 X
12 1 1 517 3 2 2 1 630 d08.gif 0 X
12 1 1 518 3 1 1 1 918 b08.gif 0 X
12 1 1 519 3 2 2 1 78 d08.gif 0 X
12 1 1 520 3 1 1 1 318 b03.gif 0 X
12 1 1 521 3 1 2 0 2006 d04.gif 0 X
12 1 1 522 3 0 0 1 118 a08.gif 0 X
12 1 1 523 3 2 2 1 174 d02.gif 0 X
12 1 1 524 3 2 1 0 198 b01.gif 0 X
12 1 1 525 3 2 2 1 414 d05.gif 0 X
12 1 1 526 3 0 0 1 22 a05.gif 0 X
12 1 1 527 3 1 1 1 2317 b01.gif 0 X
12 1 1 528 3 0 0 1 38 a04.gif 0 X
12 1 1 529 3 2 2 1 70 d08.gif 0 X
12 1 1 530 3 0 0 1 70 a07.gif 0 X
12 1 1 531 3 1 1 1 766 b07.gif 0 X
12 1 1 532 3 1 1 1 374 b02.gif 0 X
12 1 1 533 3 1 1 1 70 b02.gif 0 X
12 1 1 534 3 1 2 0 39 d01.gif 0 X
12 1 1 535 3 0 0 1 829 a03.gif 0 X
12 1 1 536 3 0 0 1 238 a01.gif 0 X
12 1 1 537 3 2 2 1 262 d02.gif 0 X
12 1 1 538 3 0 0 1 110 a03.gif 0 X
12 1 1 539 3 2 2 1 214 d01.gif 0 X
12 1 1 540 3 2 1 0 46 b04.gif 0 X
12 1 1 541 3 0 0 1 61 a05.gif 0 X
12 1 1 542 3 2 1 0 110 b05.gif 0 X
12 1 1 543 3 2 2 1 877 d08.gif 0 X
12 1 1 544 3 2 2 1 47 d06.gif 0 X
12 1 1 545 3 0 0 1 168 a07.gif 0 X
12 1 1 546 3 2 1 0 631 b04.gif 0 X
12 1 1 547 3 0 0 1 644 a04.gif 0 X
12 1 1 548 3 2 1 0 1846 b03.gif 0 X
12 1 1 549 3 1 1 1 1286 b05.gif 0 X
12 1 1 550 3 0 0 1 126 a06.gif 0 X
12 1 1 551 3 2 2 1 726 d05.gif 0 X
12 1 1 552 4 0 0 1 433 a01.gif 0 X
12 1 1 553 4 0 0 1 38 a03.gif 0 X
12 1 1 554 4 0 0 1 606 a02.gif 0 X
12 1 1 555 4 0 0 1 542 a06.gif 0 X
12 1 1 556 4 0 0 1 119 a06.gif 0 X
12 1 1 557 4 2 2 1 135 d06.gif 0 X
12 1 1 558 4 2 2 1 184 d03.gif 0 X
12 1 1 559 4 1 1 1 575 b08.gif 0 X
12 1 1 560 4 2 2 1 215 d01.gif 0 X
12 1 1 561 4 2 2 1 55 d03.gif 0 X
12 1 1 562 4 1 1 1 284 b06.gif 0 X
12 1 1 563 4 2 2 1 166 d03.gif 0 X
12 1 1 564 4 0 0 1 78 a05.gif 0 X
12 1 1 565 4 2 2 1 1014 d07.gif 0 X
12 1 1 566 4 0 0 1 470 a04.gif 0 X
12 1 1 567 4 1 1 1 110 b08.gif 0 X
12 1 1 568 4 0 0 1 214 a02.gif 0 X
12 1 1 569 4 2 2 1 262 d07.gif 0 X
12 1 1 570 4 2 2 1 415 d07.gif 0 X
12 1 1 571 4 1 1 1 1111 b07.gif 0 X
12 1 1 572 4 1 1 1 343 b03.gif 0 X
12 1 1 573 4 2 2 1 54 d03.gif 0 X
12 1 1 574 4 1 1 1 119 b06.gif 0 X
12 1 1 575 4 0 0 1 54 a03.gif 0 X
12 1 1 576 4 1 2 0 1086 d04.gif 0 X
12 1 1 577 4 1 1 1 989 b05.gif 0 X
12 1 1 578 4 2 2 1 383 d06.gif 0 X
12 1 1 579 4 0 0 1 21 a08.gif 0 X
12 1 1 580 4 1 1 1 2223 b07.gif 0 X
12 1 1 581 4 0 0 1 368 a08.gif 0 X
12 1 1 582 4 2 0 0 2878 a07.gif 0 X
12 1 1 583 4 2 2 1 1381 d05.gif 0 X
12 1 1 584 4 1 1 1 390 b01.gif 0 X
12 1 1 585 4 0 0 1 71 a04.gif 0 X
12 1 1 586 4 0 0 1 431 a07.gif 0 X
12 1 1 587 4 1 1 1 614 b02.gif 0 X
12 1 1 588 4 1 1 1 86 b02.gif 0 X
12 1 1 589 4 2 2 1 2486 d08.gif 0 X
12 1 1 590 4 1 1 1 311 b08.gif 0 X
12 1 1 591 4 2 2 1 22 d08.gif 0 X
12 1 1 592 4 1 1 1 93 b03.gif 0 X
12 1 1 593 4 1 2 0 358 d04.gif 0 X
12 1 1 594 4 0 0 1 230 a08.gif 0 X
12 1 1 595 4 2 2 1 118 d02.gif 0 X
12 1 1 596 4 1 1 1 126 b01.gif 0 X
12 1 1 597 4 2 2 1 174 d05.gif 0 X
12 1 1 598 4 0 0 1 21 a05.gif 0 X
12 1 1 599 4 1 1 1 126 b01.gif 0 X
12 1 1 600 4 0 0 1 45 a04.gif 0 X
12 1 1 601 4 2 2 1 78 d08.gif 0 X
12 1 1 602 4 0 0 1 436 a07.gif 0 X
12 1 1 603 4 2 1 0 2639 b07.gif 0 X
12 1 1 604 4 1 1 1 486 b02.gif 0 X
12 1 1 605 4 1 1 1 23 b02.gif 0 X
12 1 1 606 4 2 2 1 2807 d01.gif 0 X
12 1 1 607 4 0 0 1 326 a03.gif 0 X
12 1 1 608 4 0 0 1 86 a01.gif 0 X
12 1 1 609 4 2 2 1 1119 d02.gif 0 X
12 1 1 610 4 0 0 1 1695 a03.gif 0 X
12 1 1 611 4 2 2 1 1685 d01.gif 0 X
12 1 1 612 4 2 1 0 575 b04.gif 0 X
12 1 1 613 4 0 0 1 134 a05.gif 0 X
12 1 1 614 4 1 1 1 2328 b05.gif 0 X
12 1 1 615 4 2 2 1 55 d08.gif 0 X
12 1 1 616 4 2 2 1 672 d06.gif 0 X
12 1 1 617 4 0 0 1 111 a07.gif 0 X
12 1 1 618 4 1 1 1 689 b04.gif 0 X
12 1 1 619 4 0 0 1 9 a04.gif 0 X
12 1 1 620 4 1 1 1 164 b03.gif 0 X
12 1 1 621 4 1 1 1 190 b05.gif 0 X
12 1 1 622 4 0 0 1 118 a06.gif 0 X
12 1 1 623 4 2 2 1 1078 d05.gif 0 X
12 1 3 624 10 2 2 1 4065 d15.gif 0 0
12 1 3 625 10 2 2 1 2156 d04.gif 0 1
12 1 3 626 10 1 1 1 540 b13.gif 0 0
12 1 3 627 10 2 2 1 75 d08.gif 0 1
12 1 3 628 10 0 0 1 124 a02.gif 0 1
12 1 3 629 10 0 0 1 603 a05.gif 0 1
12 1 3 630 10 2 2 1 1947 d11.gif 0 0
12 1 3 631 10 1 1 1 395 b08.gif 0 1
12 1 3 632 10 1 2 0 2820 d09.gif 0 0
12 1 3 633 10 2 2 1 701 d12.gif 0 0
12 1 3 634 10 0 0 1 77 a14.gif 0 0
12 1 3 635 10 2 1 0 1908 b10.gif 0 0
12 1 3 636 10 0 0 1 83 a04.gif 0 1
12 1 3 637 10 0 0 1 131 a12.gif 0 0
12 1 3 638 10 2 2 1 595 d06.gif 0 1
12 1 3 639 10 0 0 1 76 a09.gif 0 0
12 1 3 640 10 2 2 1 228 d16.gif 0 0
12 1 3 641 10 1 1 1 534 b16.gif 0 0
12 1 3 642 10 2 2 1 308 d14.gif 0 0
12 1 3 643 10 2 2 1 187 d03.gif 0 1
12 1 3 644 10 1 1 1 613 b05.gif 0 1
12 1 3 645 10 0 0 1 100 a03.gif 0 1
12 1 3 646 10 0 0 1 132 a08.gif 0 1
12 1 3 647 10 1 1 1 497 b02.gif 0 1
12 1 3 648 10 1 1 1 60 b09.gif 0 0
12 1 3 649 10 2 2 1 1892 d05.gif 0 1
12 1 3 650 10 0 0 1 84 a01.gif 0 1
12 1 3 651 10 0 0 1 932 a11.gif 0 0
12 1 3 652 10 2 2 1 652 d10.gif 0 0
12 1 3 653 10 1 2 0 1076 d01.gif 0 1
12 1 3 654 10 1 1 1 108 b14.gif 0 0
12 1 3 655 10 1 1 1 405 b11.gif 0 0
12 1 3 656 10 2 2 1 387 d13.gif 0 0
12 1 3 657 10 2 1 0 476 b12.gif 0 0
12 1 3 658 10 1 1 1 2483 b03.gif 0 1
12 1 3 659 10 0 0 1 100 a16.gif 0 0
12 1 3 660 10 0 0 1 13 a10.gif 0 0
12 1 3 661 10 2 2 1 580 d07.gif 0 1
12 1 3 662 10 1 1 1 69 b01.gif 0 1
12 1 3 663 10 1 1 1 213 b06.gif 0 1
12 1 3 664 10 1 1 1 532 b07.gif 0 1
12 1 3 665 10 0 0 1 37 a13.gif 0 0
12 1 3 666 10 1 1 1 982 b04.gif 0 1
12 1 3 667 10 2 2 1 13 d02.gif 0 1
12 1 3 668 10 1 1 1 27 b15.gif 0 0
12 1 3 669 10 0 0 1 851 a06.gif 0 1
12 1 3 670 10 0 0 1 181 a15.gif 0 0
12 1 3 671 10 0 0 1 77 a07.gif 0 1
13 0 1 0 1 1 1 1 3155 b02.gif 0 X 
13 0 1 1 1 2 1 0 1426 b06.gif 0 X 
13 0 1 2 1 0 1 0 1521 b07.gif 0 X 
13 0 1 3 1 2 2 1 2306 d07.gif 0 X 
13 0 1 4 1 0 1 0 874 b01.gif 0 X 
13 0 1 5 1 1 1 1 689 b03.gif 0 X 
13 0 1 6 1 2 1 0 179 b07.gif 0 X 
13 0 1 7 1 2 2 1 561 d06.gif 0 X 
13 0 1 8 1 1 0 0 361 c02.gif 0 X 
13 0 1 9 1 2 0 0 75 c07.gif 0 X 
13 0 1 10 1 2 2 1 915 d01.gif 0 X 
13 0 1 11 1 0 0 1 442 c02.gif 0 X 
13 0 1 12 1 1 2 0 363 d04.gif 0 X 
13 0 1 13 1 0 0 1 104 c04.gif 0 X 
13 0 1 14 1 0 0 1 650 c01.gif 0 X 
13 0 1 15 1 2 1 0 241 b05.gif 0 X 
13 0 1 16 1 2 2 1 553 d01.gif 0 X 
13 0 1 17 1 0 1 0 179 b04.gif 0 X 
13 0 1 18 1 2 2 1 530 d07.gif 0 X 
13 0 1 19 1 1 0 0 819 c06.gif 0 X 
13 0 1 20 1 2 1 0 754 b08.gif 0 X 
13 0 1 21 1 2 2 1 283 d06.gif 0 X 
13 0 1 22 1 2 0 0 187 c03.gif 0 X 
13 0 1 23 1 1 2 0 610 d08.gif 0 X 
13 0 1 24 1 2 0 0 242 c08.gif 0 X 
13 0 1 25 1 1 2 0 187 d03.gif 0 X 
13 0 1 26 1 2 0 0 394 c07.gif 0 X 
13 0 1 27 1 1 1 1 59 b01.gif 0 X 
13 0 1 28 1 2 2 1 75 d07.gif 0 X 
13 0 1 29 1 0 0 1 659 c06.gif 0 X 
13 0 1 30 1 0 0 1 369 c03.gif 0 X 
13 0 1 31 1 1 2 0 337 d04.gif 0 X 
13 0 1 32 1 2 1 0 1378 b07.gif 0 X 
13 0 1 33 1 2 1 0 145 b06.gif 0 X 
13 0 1 34 1 2 2 1 58 d06.gif 0 X 
13 0 1 35 1 1 1 1 340 b03.gif 0 X 
13 0 1 36 1 0 1 0 2 b02.gif 0 X 
13 0 1 37 1 2 1 0 368 b04.gif 0 X 
13 0 1 38 1 1 0 0 400 c08.gif 0 X 
13 0 1 39 1 2 0 0 464 c08.gif 0 X 
13 0 1 40 1 1 2 0 130 d05.gif 0 X 
13 0 1 41 1 1 0 0 115 c05.gif 0 X 
13 0 1 42 1 2 0 0 122 c01.gif 0 X 
13 0 1 43 1 1 1 1 82 b04.gif 0 X 
13 0 1 44 1 2 2 1 418 d03.gif 0 X 
13 0 1 45 1 0 0 1 20 c07.gif 0 X 
13 0 1 46 1 2 1 0 355 b01.gif 0 X 
13 0 1 47 1 0 0 1 17 c03.gif 0 X 
13 0 1 48 1 1 2 0 665 d02.gif 0 X 
13 0 1 49 1 2 0 0 107 c04.gif 0 X 
13 0 1 50 1 1 0 0 514 c04.gif 0 X 
13 0 1 51 1 0 0 1 217 c03.gif 0 X 
13 0 1 52 1 1 2 0 340 d05.gif 0 X 
13 0 1 53 1 2 2 1 242 d08.gif 0 X 
13 0 1 54 1 0 0 1 778 c02.gif 0 X 
13 0 1 55 1 1 2 0 458 d01.gif 0 X 
13 0 1 56 1 2 1 0 179 b05.gif 0 X 
13 0 1 57 1 0 2 0 114 d06.gif 0 X 
13 0 1 58 1 2 1 0 164 b02.gif 0 X 
13 0 1 59 1 0 0 1 147 c06.gif 0 X 
13 0 1 60 1 2 2 1 626 d08.gif 0 X 
13 0 1 61 1 0 0 1 500 c07.gif 0 X 
13 0 1 62 1 1 1 1 387 b07.gif 0 X 
13 0 1 63 1 1 2 0 730 d03.gif 0 X 
13 0 1 64 1 0 1 0 57 b06.gif 0 X 
13 0 1 65 1 1 2 0 170 d04.gif 0 X 
13 0 1 66 1 2 1 0 510 b08.gif 0 X 
13 0 1 67 1 0 2 0 218 d02.gif 0 X 
13 0 1 68 1 1 0 0 441 c04.gif 0 X 
13 0 1 69 1 0 0 1 384 c08.gif 0 X 
13 0 1 70 1 2 2 1 137 d01.gif 0 X 
13 0 1 71 1 1 0 0 769 c05.gif 0 X 
13 0 1 72 2 2 1 0 857 b02.gif 0 X 
13 0 1 73 2 0 1 0 225 b06.gif 0 X 
13 0 1 74 2 2 1 0 467 b07.gif 0 X 
13 0 1 75 2 2 2 1 499 d07.gif 0 X 
13 0 1 76 2 0 1 0 177 b01.gif 0 X 
13 0 1 77 2 1 1 1 658 b03.gif 0 X 
13 0 1 78 2 2 1 0 330 b07.gif 0 X 
13 0 1 79 2 1 2 0 2233 d06.gif 0 X 
13 0 1 80 2 1 0 0 306 c02.gif 0 X 
13 0 1 81 2 0 0 1 25 c07.gif 0 X 
13 0 1 82 2 2 2 1 546 d01.gif 0 X 
13 0 1 83 2 0 0 1 498 c02.gif 0 X 
13 0 1 84 2 2 2 1 284 d04.gif 0 X 
13 0 1 85 2 1 0 0 170 c04.gif 0 X 
13 0 1 86 2 1 0 0 568 c01.gif 0 X 
13 0 1 87 2 1 1 1 11210 b05.gif 0 X 
13 0 1 88 2 2 2 1 261 d01.gif 0 X 
13 0 1 89 2 0 1 0 155 b04.gif 0 X 
13 0 1 90 2 2 2 1 10 d07.gif 0 X 
13 0 1 91 2 0 0 1 634 c06.gif 0 X 
13 0 1 92 2 0 1 0 505 b08.gif 0 X 
13 0 1 93 2 2 2 1 547 d06.gif 0 X 
13 0 1 94 2 0 0 1 185 c03.gif 0 X 
13 0 1 95 2 2 2 1 337 d08.gif 0 X 
13 0 1 96 2 0 0 1 418 c08.gif 0 X 
13 0 1 97 2 1 2 0 297 d03.gif 0 X 
13 0 1 98 2 0 0 1 433 c07.gif 0 X 
13 0 1 99 2 1 1 1 467 b01.gif 0 X 
13 0 1 100 2 2 2 1 466 d07.gif 0 X 
13 0 1 101 2 0 0 1 234 c06.gif 0 X 
13 0 1 102 2 0 0 1 354 c03.gif 0 X 
13 0 1 103 2 2 2 1 769 d04.gif 0 X 
13 0 1 104 2 1 1 1 1553 b07.gif 0 X 
13 0 1 105 2 1 1 1 858 b06.gif 0 X 
13 0 1 106 2 0 2 0 331 d06.gif 0 X 
13 0 1 107 2 1 1 1 401 b03.gif 0 X 
13 0 1 108 2 1 1 1 1483 b02.gif 0 X 
13 0 1 109 2 1 1 1 1003 b04.gif 0 X 
13 0 1 110 2 0 0 1 115 c08.gif 0 X 
13 0 1 111 2 0 0 1 14 c08.gif 0 X 
13 0 1 112 2 2 2 1 369 d05.gif 0 X 
13 0 1 113 2 1 0 0 501 c05.gif 0 X 
13 0 1 114 2 0 0 1 201 c01.gif 0 X 
13 0 1 115 2 1 1 1 915 b04.gif 0 X 
13 0 1 116 2 2 2 1 403 d03.gif 0 X 
13 0 1 117 2 0 0 1 163 c07.gif 0 X 
13 0 1 118 2 1 1 1 627 b01.gif 0 X 
13 0 1 119 2 0 0 1 195 c03.gif 0 X 
13 0 1 120 2 1 2 0 555 d02.gif 0 X 
13 0 1 121 2 0 0 1 251 c04.gif 0 X 
13 0 1 122 2 0 0 1 124 c04.gif 0 X 
13 0 1 123 2 0 0 1 499 c03.gif 0 X 
13 0 1 124 2 2 2 1 707 d05.gif 0 X 
13 0 1 125 2 2 2 1 194 d08.gif 0 X 
13 0 1 126 2 2 0 0 970 c02.gif 0 X 
13 0 1 127 2 1 2 0 538 d01.gif 0 X 
13 0 1 128 2 1 1 1 563 b05.gif 0 X 
13 0 1 129 2 2 2 1 620 d06.gif 0 X 
13 0 1 130 2 1 1 1 659 b02.gif 0 X 
13 0 1 131 2 0 0 1 218 c06.gif 0 X 
13 0 1 132 2 2 2 1 209 d08.gif 0 X 
13 0 1 133 2 0 0 1 241 c07.gif 0 X 
13 0 1 134 2 1 1 1 489 b07.gif 0 X 
13 0 1 135 2 2 2 1 346 d03.gif 0 X 
13 0 1 136 2 1 1 1 529 b06.gif 0 X 
13 0 1 137 2 2 2 1 739 d04.gif 0 X 
13 0 1 138 2 1 1 1 586 b08.gif 0 X 
13 0 1 139 2 2 2 1 337 d02.gif 0 X 
13 0 1 140 2 0 0 1 241 c04.gif 0 X 
13 0 1 141 2 0 0 1 98 c08.gif 0 X 
13 0 1 142 2 2 2 1 49 d01.gif 0 X 
13 0 1 143 2 0 0 1 33 c05.gif 0 X 
13 0 1 144 3 2 1 0 879 b02.gif 0 X 
13 0 1 145 3 1 1 1 299 b06.gif 0 X 
13 0 1 146 3 2 1 0 257 b07.gif 0 X 
13 0 1 147 3 2 2 1 226 d07.gif 0 X 
13 0 1 148 3 2 1 0 579 b01.gif 0 X 
13 0 1 149 3 1 1 1 202 b03.gif 0 X 
13 0 1 150 3 1 1 1 562 b07.gif 0 X 
13 0 1 151 3 2 2 1 370 d06.gif 0 X 
13 0 1 152 3 0 0 1 105 c02.gif 0 X 
13 0 1 153 3 0 0 1 91 c07.gif 0 X 
13 0 1 154 3 2 2 1 361 d01.gif 0 X 
13 0 1 155 3 0 0 1 618 c02.gif 0 X 
13 0 1 156 3 2 2 1 224 d04.gif 0 X 
13 0 1 157 3 0 0 1 88 c04.gif 0 X 
13 0 1 158 3 0 0 1 40 c01.gif 0 X 
13 0 1 159 3 1 1 1 339 b05.gif 0 X 
13 0 1 160 3 2 2 1 108 d01.gif 0 X 
13 0 1 161 3 1 1 1 620 b04.gif 0 X 
13 0 1 162 3 2 2 1 380 d07.gif 0 X 
13 0 1 163 3 0 0 1 53 c06.gif 0 X 
13 0 1 164 3 1 1 1 730 b08.gif 0 X 
13 0 1 165 3 2 2 1 473 d06.gif 0 X 
13 0 1 166 3 0 0 1 187 c03.gif 0 X 
13 0 1 167 3 2 2 1 75 d08.gif 0 X 
13 0 1 168 3 0 0 1 595 c08.gif 0 X 
13 0 1 169 3 1 2 0 612 d03.gif 0 X 
13 0 1 170 3 0 0 1 393 c07.gif 0 X 
13 0 1 171 3 1 1 1 860 b01.gif 0 X 
13 0 1 172 3 2 2 1 73 d07.gif 0 X 
13 0 1 173 3 0 0 1 115 c06.gif 0 X 
13 0 1 174 3 0 0 1 347 c03.gif 0 X 
13 0 1 175 3 1 2 0 867 d04.gif 0 X 
13 0 1 176 3 2 1 0 835 b07.gif 0 X 
13 0 1 177 3 1 1 1 522 b06.gif 0 X 
13 0 1 178 3 2 2 1 203 d06.gif 0 X 
13 0 1 179 3 1 1 1 349 b03.gif 0 X 
13 0 1 180 3 1 1 1 677 b02.gif 0 X 
13 0 1 181 3 1 1 1 531 b04.gif 0 X 
13 0 1 182 3 0 0 1 203 c08.gif 0 X 
13 0 1 183 3 0 0 1 34 c08.gif 0 X 
13 0 1 184 3 1 2 0 490 d05.gif 0 X 
13 0 1 185 3 0 0 1 155 c05.gif 0 X 
13 0 1 186 3 0 0 1 202 c01.gif 0 X 
13 0 1 187 3 1 1 1 299 b04.gif 0 X 
13 0 1 188 3 2 2 1 756 d03.gif 0 X 
13 0 1 189 3 0 0 1 154 c07.gif 0 X 
13 0 1 190 3 2 1 0 554 b01.gif 0 X 
13 0 1 191 3 0 0 1 248 c03.gif 0 X 
13 0 1 192 3 1 2 0 443 d02.gif 0 X 
13 0 1 193 3 0 0 1 114 c04.gif 0 X 
13 0 1 194 3 0 0 1 916 c04.gif 0 X 
13 0 1 195 3 0 0 1 268 c03.gif 0 X 
13 0 1 196 3 2 2 1 253 d05.gif 0 X 
13 0 1 197 3 2 2 1 74 d08.gif 0 X 
13 0 1 198 3 0 0 1 275 c02.gif 0 X 
13 0 1 199 3 2 2 1 67 d01.gif 0 X 
13 0 1 200 3 1 1 1 442 b05.gif 0 X 
13 0 1 201 3 2 2 1 137 d06.gif 0 X 
13 0 1 202 3 2 1 0 409 b02.gif 0 X 
13 0 1 203 3 0 0 1 113 c06.gif 0 X 
13 0 1 204 3 2 2 1 98 d08.gif 0 X 
13 0 1 205 3 0 0 1 59 c07.gif 0 X 
13 0 1 206 3 1 1 1 506 b07.gif 0 X 
13 0 1 207 3 2 2 1 265 d03.gif 0 X 
13 0 1 208 3 1 1 1 425 b06.gif 0 X 
13 0 1 209 3 2 2 1 449 d04.gif 0 X 
13 0 1 210 3 2 1 0 290 b08.gif 0 X 
