subject condition trial_type trial block resp corr_resp hit RT fileinfo schedule studied
1 0 1 0 1 0 0 1 3258 b03.gif 0 X 
1 0 1 1 1 2 0 0 3053 b06.gif 0 X 
1 0 1 2 1 0 0 1 923 b03.gif 0 X 
1 0 1 3 1 0 0 1 24619 b04.gif 0 X 
1 0 1 4 1 0 1 0 774 f07.gif 0 X 
1 0 1 5 1 1 0 0 11139 b06.gif 0 X 
1 0 1 6 1 0 1 0 442 f05.gif 0 X 
1 0 1 7 1 1 2 0 1084 a01.gif 0 X 
1 0 1 8 1 1 0 0 2844 b05.gif 0 X 
1 0 1 9 1 2 2 1 2076 a01.gif 0 X 
1 0 1 10 1 1 0 0 1732 b02.gif 0 X 
1 0 1 11 1 0 1 0 4028 f04.gif 0 X 
1 0 1 12 1 0 0 1 1763 b05.gif 0 X 
1 0 1 13 1 2 2 1 988 a08.gif 0 X 
1 0 1 14 1 1 1 1 17316 f03.gif 0 X 
1 0 1 15 1 2 0 0 5524 b07.gif 0 X 
1 0 1 16 1 0 1 0 47898 f01.gif 0 X 
1 0 1 17 1 1 2 0 1060 a05.gif 0 X 
1 0 1 18 1 0 1 0 1212 f03.gif 0 X 
1 0 1 19 1 1 2 0 2540 a02.gif 0 X 
1 0 1 20 1 2 0 0 17018 b01.gif 0 X 
1 0 1 21 1 0 1 0 1076 f03.gif 0 X 
1 0 1 22 1 1 1 1 1581 f04.gif 0 X 
1 0 1 23 1 1 2 0 2371 a03.gif 0 X 
1 0 1 24 1 1 0 0 2202 b08.gif 0 X 
1 0 1 25 1 1 2 0 2763 a05.gif 0 X 
1 0 1 26 1 1 2 0 1188 a08.gif 0 X 
1 0 1 27 1 2 0 0 1132 b01.gif 0 X 
1 0 1 28 1 1 0 0 1403 b03.gif 0 X 
1 0 1 29 1 1 1 1 1084 f02.gif 0 X 
1 0 1 30 1 0 1 0 684 f01.gif 0 X 
1 0 1 31 1 2 1 0 13244 f02.gif 0 X 
1 0 1 32 1 0 0 1 1747 b06.gif 0 X 
1 0 1 33 1 2 1 0 6245 f02.gif 0 X 
1 0 1 34 1 0 1 0 9346 f06.gif 0 X 
1 0 1 35 1 1 1 1 924 f08.gif 0 X 
1 0 1 36 1 1 2 0 1166 a01.gif 0 X 
1 0 1 37 1 1 0 0 12051 b08.gif 0 X 
1 0 1 38 1 0 1 0 759 f07.gif 0 X 
1 0 1 39 1 2 1 0 9479 f01.gif 0 X 
1 0 1 40 1 2 2 1 619 a07.gif 0 X 
1 0 1 41 1 2 1 0 309 f06.gif 0 X 
1 0 1 42 1 0 0 1 9285 b02.gif 0 X 
1 0 1 43 1 0 2 0 516 a06.gif 0 X 
1 0 1 44 1 1 0 0 1077 b06.gif 0 X 
1 0 1 45 1 2 1 0 1501 f08.gif 0 X 
1 0 1 46 1 1 2 0 2396 a04.gif 0 X 
1 0 1 47 1 1 1 1 987 f06.gif 0 X 
1 0 1 48 1 1 0 0 21195 b08.gif 0 X 
1 0 1 49 1 0 1 0 3131 f04.gif 0 X 
1 0 1 50 1 2 2 1 33273 a03.gif 0 X 
1 0 1 51 1 1 1 1 6372 f05.gif 0 X 
1 0 1 52 1 1 0 0 36402 b01.gif 0 X 
1 0 1 53 1 2 0 0 435 b05.gif 0 X 
1 0 1 54 1 1 2 0 22883 a06.gif 0 X 
1 0 1 55 1 2 2 1 1301 a06.gif 0 X 
1 0 1 56 1 1 1 1 2899 f05.gif 0 X 
1 0 1 57 1 0 2 0 1549 a02.gif 0 X 
1 0 1 58 1 1 1 1 30194 f01.gif 0 X 
1 0 1 59 1 1 2 0 64241 a03.gif 0 X 
1 0 1 60 1 2 0 0 1859 b02.gif 0 X 
1 0 1 61 1 0 2 0 772 a02.gif 0 X 
1 0 1 62 1 2 2 1 589 a07.gif 0 X 
1 0 1 63 1 2 0 0 770 b08.gif 0 X 
1 0 1 64 1 0 2 0 17163 a05.gif 0 X 
1 0 1 65 1 1 1 1 4666 f02.gif 0 X 
1 0 1 66 1 0 2 0 1780 a08.gif 0 X 
1 0 1 67 1 2 0 0 3700 b03.gif 0 X 
1 0 1 68 1 1 2 0 2107 a08.gif 0 X 
1 0 1 69 1 2 2 1 11579 a04.gif 0 X 
1 0 1 70 1 1 1 1 8851 f08.gif 0 X 
1 0 1 71 1 2 0 0 660 b07.gif 0 X 
1 0 1 72 2 2 0 0 962 b03.gif 0 X 
1 0 1 73 2 0 0 1 2726 b06.gif 0 X 
1 0 1 74 2 0 0 1 483 b03.gif 0 X 
1 0 1 75 2 2 0 0 967 b04.gif 0 X 
1 0 1 76 2 1 1 1 831 f07.gif 0 X 
1 0 1 77 2 1 0 0 532 b06.gif 0 X 
1 0 1 78 2 2 1 0 763 f05.gif 0 X 
1 0 1 79 2 0 2 0 364 a01.gif 0 X 
1 0 1 80 2 0 0 1 476 b05.gif 0 X 
1 0 1 81 2 2 2 1 875 a01.gif 0 X 
1 0 1 82 2 1 0 0 753 b02.gif 0 X 
1 0 1 83 2 0 1 0 1147 f04.gif 0 X 
1 0 1 84 2 0 0 1 540 b05.gif 0 X 
1 0 1 85 2 2 2 1 348 a08.gif 0 X 
1 0 1 86 2 2 1 0 1130 f03.gif 0 X 
1 0 1 87 2 2 0 0 497 b07.gif 0 X 
1 0 1 88 2 2 1 0 248 f01.gif 0 X 
1 0 1 89 2 2 2 1 835 a05.gif 0 X 
1 0 1 90 2 1 1 1 449 f03.gif 0 X 
1 0 1 91 2 1 2 0 356 a02.gif 0 X 
1 0 1 92 2 2 0 0 371 b01.gif 0 X 
1 0 1 93 2 2 1 0 101 f03.gif 0 X 
1 0 1 94 2 1 1 1 28102 f04.gif 0 X 
1 0 1 95 2 0 2 0 2000 a03.gif 0 X 
1 0 1 96 2 2 0 0 436 b08.gif 0 X 
1 0 1 97 2 1 2 0 1627 a05.gif 0 X 
1 0 1 98 2 1 2 0 1604 a08.gif 0 X 
1 0 1 99 2 0 0 1 708 b01.gif 0 X 
1 0 1 100 2 0 0 1 1332 b03.gif 0 X 
1 0 1 101 2 2 1 0 1116 f02.gif 0 X 
1 0 1 102 2 1 1 1 381 f01.gif 0 X 
1 0 1 103 2 1 1 1 495 f02.gif 0 X 
1 0 1 104 2 0 0 1 709 b06.gif 0 X 
1 0 1 105 2 1 1 1 1356 f02.gif 0 X 
1 0 1 106 2 0 1 0 973 f06.gif 0 X 
1 0 1 107 2 1 1 1 638 f08.gif 0 X 
1 0 1 108 2 1 2 0 444 a01.gif 0 X 
1 0 1 109 2 1 0 0 652 b08.gif 0 X 
1 0 1 110 2 1 1 1 987 f07.gif 0 X 
1 0 1 111 2 2 1 0 845 f01.gif 0 X 
1 0 1 112 2 1 2 0 2835 a07.gif 0 X 
1 0 1 113 2 2 1 0 7388 f06.gif 0 X 
1 0 1 114 2 1 0 0 5228 b02.gif 0 X 
1 0 1 115 2 0 2 0 748 a06.gif 0 X 
1 0 1 116 2 1 0 0 613 b06.gif 0 X 
1 0 1 117 2 2 1 0 369 f08.gif 0 X 
1 0 1 118 2 2 2 1 380 a04.gif 0 X 
1 0 1 119 2 1 1 1 579 f06.gif 0 X 
1 0 1 120 2 0 0 1 597 b08.gif 0 X 
1 0 1 121 2 2 1 0 556 f04.gif 0 X 
1 0 1 122 2 0 2 0 933 a03.gif 0 X 
1 0 1 123 2 1 1 1 954 f05.gif 0 X 
1 0 1 124 2 2 0 0 547 b01.gif 0 X 
1 0 1 125 2 1 0 0 1971 b05.gif 0 X 
1 0 1 126 2 1 2 0 636 a06.gif 0 X 
1 0 1 127 2 1 2 0 1268 a06.gif 0 X 
1 0 1 128 2 2 1 0 1253 f05.gif 0 X 
1 0 1 129 2 1 2 0 3492 a02.gif 0 X 
1 0 1 130 2 0 1 0 1252 f01.gif 0 X 
1 0 1 131 2 1 2 0 378 a03.gif 0 X 
1 0 1 132 2 2 0 0 3044 b02.gif 0 X 
1 0 1 133 2 1 2 0 1244 a02.gif 0 X 
1 0 1 134 2 1 2 0 14762 a07.gif 0 X 
1 0 1 135 2 0 0 1 5577 b08.gif 0 X 
1 0 1 136 2 2 2 1 7453 a05.gif 0 X 
1 0 1 137 2 1 1 1 5019 f02.gif 0 X 
1 0 1 138 2 0 2 0 5099 a08.gif 0 X 
1 0 1 139 2 1 0 0 52544 b03.gif 0 X 
1 0 1 140 2 2 2 1 396 a08.gif 0 X 
1 0 1 141 2 1 2 0 2092 a04.gif 0 X 
1 0 1 142 2 2 1 0 1612 f08.gif 0 X 
1 0 1 143 2 1 0 0 1196 b07.gif 0 X 
1 0 1 144 3 1 0 0 3185 b03.gif 0 X 
1 0 1 145 3 0 0 1 539 b06.gif 0 X 
1 0 1 146 3 0 0 1 67 b03.gif 0 X 
1 0 1 147 3 0 0 1 60 b04.gif 0 X 
1 0 1 148 3 1 1 1 525 f07.gif 0 X 
1 0 1 149 3 2 0 0 517 b06.gif 0 X 
1 0 1 150 3 2 1 0 156 f05.gif 0 X 
1 0 1 151 3 2 2 1 644 a01.gif 0 X 
1 0 1 152 3 2 0 0 40263 b05.gif 0 X 
1 0 1 153 3 0 2 0 1124 a01.gif 0 X 
1 0 1 154 3 1 0 0 204 b02.gif 0 X 
1 0 1 155 3 1 1 1 1612 f04.gif 0 X 
1 0 1 156 3 2 0 0 829 b05.gif 0 X 
1 0 1 157 3 1 2 0 531 a08.gif 0 X 
1 0 1 158 3 2 1 0 1034 f03.gif 0 X 
1 0 1 159 3 1 0 0 530 b07.gif 0 X 
1 0 1 160 3 1 1 1 547 f01.gif 0 X 
1 0 1 161 3 0 2 0 869 a05.gif 0 X 
1 0 1 162 3 1 1 1 578 f03.gif 0 X 
1 0 1 163 3 0 2 0 3004 a02.gif 0 X 
1 0 1 164 3 2 0 0 348 b01.gif 0 X 
1 0 1 165 3 1 1 1 40850 f03.gif 0 X 
1 0 1 166 3 0 1 0 2036 f04.gif 0 X 
1 0 1 167 3 1 2 0 1429 a03.gif 0 X 
1 0 1 168 3 2 0 0 1467 b08.gif 0 X 
1 0 1 169 3 2 2 1 6537 a05.gif 0 X 
1 0 1 170 3 2 2 1 93 a08.gif 0 X 
1 0 1 171 3 1 0 0 412 b01.gif 0 X 
1 0 1 172 3 0 0 1 724 b03.gif 0 X 
1 0 1 173 3 2 1 0 396 f02.gif 0 X 
1 0 1 174 3 1 1 1 17691 f01.gif 0 X 
1 0 1 175 3 2 1 0 588 f02.gif 0 X 
1 0 1 176 3 1 0 0 1124 b06.gif 0 X 
1 0 1 177 3 1 1 1 669 f02.gif 0 X 
1 0 1 178 3 0 1 0 563 f06.gif 0 X 
1 0 1 179 3 1 1 1 130 f08.gif 0 X 
1 0 1 180 3 2 2 1 623 a01.gif 0 X 
1 0 1 181 3 2 0 0 149 b08.gif 0 X 
1 0 1 182 3 1 1 1 820 f07.gif 0 X 
1 0 1 183 3 1 1 1 371 f01.gif 0 X 
1 0 1 184 3 1 2 0 462 a07.gif 0 X 
1 0 1 185 3 2 1 0 517 f06.gif 0 X 
1 0 1 186 3 0 0 1 11827 b02.gif 0 X 
1 0 1 187 3 2 2 1 5172 a06.gif 0 X 
1 0 1 188 3 1 0 0 12482 b06.gif 0 X 
1 0 1 189 3 2 1 0 3898 f08.gif 0 X 
1 0 1 190 3 0 2 0 3904 a04.gif 0 X 
1 0 1 191 3 2 1 0 2062 f06.gif 0 X 
1 0 1 192 3 1 0 0 8393 b08.gif 0 X 
1 0 1 193 3 1 1 1 60855 f04.gif 0 X 
1 0 1 194 3 2 2 1 10220 a03.gif 0 X 
1 0 1 195 3 2 1 0 140 f05.gif 0 X 
1 0 1 196 3 1 0 0 23495 b01.gif 0 X 
1 0 1 197 3 2 0 0 1857 b05.gif 0 X 
1 0 1 198 3 0 2 0 8588 a06.gif 0 X 
1 0 1 199 3 1 2 0 1651 a06.gif 0 X 
1 0 1 200 3 1 1 1 306 f05.gif 0 X 
1 0 1 201 3 2 2 1 587 a02.gif 0 X 
1 0 1 202 3 2 1 0 372 f01.gif 0 X 
1 0 1 203 3 2 2 1 1370 a03.gif 0 X 
1 0 1 204 3 1 0 0 101 b02.gif 0 X 
1 0 1 205 3 2 2 1 564 a02.gif 0 X 
1 0 1 206 3 2 2 1 869 a07.gif 0 X 
1 0 1 207 3 1 0 0 2124 b08.gif 0 X 
1 0 1 208 3 0 2 0 6068 a05.gif 0 X 
1 0 1 209 3 2 1 0 15259 f02.gif 0 X 
1 0 1 210 3 1 2 0 565 a08.gif 0 X 
1 0 1 211 3 2 0 0 659 b03.gif 0 X 
1 0 1 212 3 2 2 1 469 a08.gif 0 X 
1 0 1 213 3 1 2 0 437 a04.gif 0 X 
1 0 1 214 3 1 1 1 541 f08.gif 0 X 
1 0 1 215 3 2 0 0 243 b07.gif 0 X 
1 0 1 216 4 1 0 0 825 b03.gif 0 X 
1 0 1 217 4 0 0 1 940 b06.gif 0 X 
1 0 1 218 4 0 0 1 492 b03.gif 0 X 
1 0 1 219 4 0 0 1 172 b04.gif 0 X 
1 0 1 220 4 1 1 1 331 f07.gif 0 X 
1 0 1 221 4 0 0 1 568 b06.gif 0 X 
1 0 1 222 4 2 1 0 428 f05.gif 0 X 
1 0 1 223 4 2 2 1 916 a01.gif 0 X 
1 0 1 224 4 1 0 0 195 b05.gif 0 X 
1 0 1 225 4 2 2 1 483 a01.gif 0 X 
1 0 1 226 4 1 0 0 437 b02.gif 0 X 
1 0 1 227 4 1 1 1 20 f04.gif 0 X 
1 0 1 228 4 2 0 0 1083 b05.gif 0 X 
1 0 1 229 4 0 2 0 548 a08.gif 0 X 
1 0 1 230 4 2 1 0 4355 f03.gif 0 X 
1 0 1 231 4 1 0 0 1082 b07.gif 0 X 
1 0 1 232 4 0 1 0 1587 f01.gif 0 X 
1 0 1 233 4 2 2 1 5920 a05.gif 0 X 
1 0 1 234 4 1 1 1 34234 f03.gif 0 X 
1 0 1 235 4 2 2 1 555 a02.gif 0 X 
1 0 1 236 4 1 0 0 2227 b01.gif 0 X 
1 0 1 237 4 1 1 1 1684 f03.gif 0 X 
1 0 1 238 4 0 1 0 2099 f04.gif 0 X 
1 0 1 239 4 1 2 0 316 a03.gif 0 X 
1 0 1 240 4 2 0 0 2316 b08.gif 0 X 
1 0 1 241 4 1 2 0 1516 a05.gif 0 X 
1 0 1 242 4 0 2 0 4923 a08.gif 0 X 
1 0 1 243 4 1 0 0 258 b01.gif 0 X 
1 0 1 244 4 1 0 0 2275 b03.gif 0 X 
1 0 1 245 4 2 1 0 873 f02.gif 0 X 
1 0 1 246 4 0 1 0 1355 f01.gif 0 X 
1 0 1 247 4 1 1 1 107 f02.gif 0 X 
1 0 1 248 4 1 0 0 646 b06.gif 0 X 
1 0 1 249 4 1 1 1 593 f02.gif 0 X 
1 0 1 250 4 1 1 1 211 f06.gif 0 X 
1 0 1 251 4 1 1 1 366 f08.gif 0 X 
1 0 1 252 4 1 2 0 205 a01.gif 0 X 
1 0 1 253 4 1 0 0 213 b08.gif 0 X 
1 0 1 254 4 2 1 0 875 f07.gif 0 X 
1 0 1 255 4 2 1 0 484 f01.gif 0 X 
1 0 1 256 4 0 2 0 6203 a07.gif 0 X 
1 0 1 257 4 2 1 0 32289 f06.gif 0 X 
1 0 1 258 4 1 0 0 1058 b02.gif 0 X 
1 0 1 259 4 1 2 0 2587 a06.gif 0 X 
1 0 1 260 4 0 0 1 3340 b06.gif 0 X 
1 0 1 261 4 2 1 0 1349 f08.gif 0 X 
1 0 1 262 4 1 2 0 201 a04.gif 0 X 
1 0 1 263 4 1 1 1 1372 f06.gif 0 X 
1 0 1 264 4 1 0 0 605 b08.gif 0 X 
1 0 1 265 4 0 1 0 2019 f04.gif 0 X 
1 0 1 266 4 1 2 0 899 a03.gif 0 X 
1 0 1 267 4 2 1 0 6385 f05.gif 0 X 
1 0 1 268 4 1 0 0 262 b01.gif 0 X 
1 0 1 269 4 0 0 1 23226 b05.gif 0 X 
1 0 1 270 4 1 2 0 5503 a06.gif 0 X 
1 0 1 271 4 0 2 0 1271 a06.gif 0 X 
1 0 1 272 4 2 1 0 5045 f05.gif 0 X 
1 0 1 273 4 1 2 0 941 a02.gif 0 X 
1 0 1 274 4 2 1 0 1129 f01.gif 0 X 
1 0 1 275 4 2 2 1 281 a03.gif 0 X 
1 0 1 276 4 0 0 1 802 b02.gif 0 X 
1 0 1 277 4 1 2 0 276 a02.gif 0 X 
1 0 1 278 4 1 2 0 924 a07.gif 0 X 
1 0 1 279 4 0 0 1 279 b08.gif 0 X 
1 0 1 280 4 0 2 0 1390 a05.gif 0 X 
1 0 1 281 4 2 1 0 2249 f02.gif 0 X 
1 0 1 282 4 1 2 0 1622 a08.gif 0 X 
1 0 1 283 4 1 0 0 692 b03.gif 0 X 
1 0 1 284 4 1 2 0 636 a08.gif 0 X 
1 0 1 285 4 2 2 1 295 a04.gif 0 X 
1 0 1 286 4 2 1 0 372 f08.gif 0 X 
1 0 1 287 4 0 0 1 1083 b07.gif 0 X 
1 0 3 288 5 0 0 1 1334 b08.gif 0 1
1 0 3 289 5 1 1 1 561 f15.gif 0 0
1 0 3 290 5 1 2 0 722 a03.gif 0 1
1 0 3 291 5 1 2 0 1290 a07.gif 0 1
1 0 3 292 5 0 1 0 1178 f01.gif 0 1
1 0 3 293 5 2 2 1 2329 a04.gif 0 1
1 0 3 294 5 1 2 0 680 a15.gif 0 0
1 0 3 295 5 2 0 0 439 b04.gif 0 1
1 0 3 296 5 0 0 1 320 b07.gif 0 1
1 0 3 297 5 0 0 1 1883 b06.gif 0 1
1 0 3 298 5 1 1 1 2223 f04.gif 0 1
1 0 3 299 5 2 0 0 873 b03.gif 0 1
1 0 3 300 5 1 0 0 933 b15.gif 0 0
1 0 3 301 5 0 2 0 545 a16.gif 0 0
1 0 3 302 5 1 0 0 462 b12.gif 0 0
1 0 3 303 5 2 2 1 977 a06.gif 0 1
1 0 3 304 5 0 2 0 583 a12.gif 0 0
1 0 3 305 5 1 0 0 537 b16.gif 0 0
1 0 3 306 5 2 2 1 504 a11.gif 0 0
1 0 3 307 5 0 0 1 445 b09.gif 0 0
1 0 3 308 5 0 1 0 381 f13.gif 0 0
1 0 3 309 5 1 2 0 418 a05.gif 0 1
1 0 3 310 5 1 2 0 481 a10.gif 0 0
1 0 3 311 5 1 0 0 442 b01.gif 0 1
1 0 3 312 5 1 0 0 418 b02.gif 0 1
1 0 3 313 5 0 2 0 489 a08.gif 0 1
1 0 3 314 5 2 1 0 467 f06.gif 0 1
1 0 3 315 5 2 0 0 360 b14.gif 0 0
1 0 3 316 5 1 2 0 235 a09.gif 0 0
1 0 3 317 5 0 1 0 481 f10.gif 0 0
1 0 3 318 5 1 2 0 456 a01.gif 0 1
1 0 3 319 5 1 0 0 201 b11.gif 0 0
1 0 3 320 5 2 1 0 170 f12.gif 0 0
1 0 3 321 5 2 0 0 145 b10.gif 0 0
1 0 3 322 5 2 1 0 2722 f16.gif 0 0
1 0 3 323 5 2 2 1 202 a14.gif 0 0
1 0 3 324 5 2 1 0 213 f02.gif 0 1
1 0 3 325 5 2 1 0 122 f08.gif 0 1
1 0 3 326 5 0 1 0 690 f14.gif 0 0
1 0 3 327 5 1 0 0 216 b05.gif 0 1
1 0 3 328 5 1 1 1 2345 f03.gif 0 1
1 0 3 329 5 1 2 0 938 a13.gif 0 0
1 0 3 330 5 2 0 0 1450 b13.gif 0 0
1 0 3 331 5 2 1 0 451 f11.gif 0 0
1 0 3 332 5 0 2 0 1578 a02.gif 0 1
1 0 3 333 5 1 1 1 1656 f05.gif 0 1
1 0 3 334 5 2 1 0 417 f09.gif 0 0
1 0 3 335 5 1 1 1 394 f07.gif 0 1
1 0 1 336 1 0 0 1 852 c02.gif 1 X
1 0 1 337 1 1 0 0 939 c03.gif 1 X
1 0 1 338 1 0 2 0 365 d08.gif 1 X
1 0 1 339 1 2 2 1 284 d04.gif 1 X
1 0 1 340 1 2 2 1 484 d04.gif 1 X
1 0 1 341 1 1 2 0 2515 d03.gif 1 X
1 0 1 342 1 1 2 0 2632 d04.gif 1 X
1 0 1 343 1 2 2 1 1738 d07.gif 1 X
1 0 1 344 1 0 2 0 1420 d06.gif 1 X
1 0 1 345 1 1 0 0 2107 c05.gif 1 X
1 0 1 346 1 1 0 0 740 c08.gif 1 X
1 0 1 347 1 2 0 0 1180 c06.gif 1 X
1 0 1 348 1 1 0 0 2651 c01.gif 1 X
1 0 1 349 1 0 0 1 5395 c06.gif 1 X
1 0 1 350 1 2 0 0 6558 c04.gif 1 X
1 0 1 351 1 1 1 1 3315 e02.gif 1 X
1 0 1 352 1 0 1 0 5108 e03.gif 1 X
1 0 1 353 1 1 1 1 10387 e04.gif 1 X
1 0 1 354 1 2 1 0 916 e08.gif 1 X
1 0 1 355 1 0 1 0 1428 e05.gif 1 X
1 0 1 356 1 1 1 1 1963 e05.gif 1 X
1 0 1 357 1 1 1 1 323 e01.gif 1 X
1 0 1 358 1 1 1 1 715 e07.gif 1 X
1 0 1 359 1 1 1 1 2315 e08.gif 1 X
1 0 1 360 1 1 1 1 2723 e02.gif 1 X
1 0 1 361 1 1 1 1 852 e02.gif 1 X
1 0 1 362 1 1 0 0 332 c04.gif 1 X
1 0 1 363 1 0 0 1 1277 c05.gif 1 X
1 0 1 364 1 0 0 1 771 c05.gif 1 X
1 0 1 365 1 2 0 0 7637 c01.gif 1 X
1 0 1 366 1 2 2 1 7857 d03.gif 1 X
1 0 1 367 1 2 2 1 2477 d05.gif 1 X
1 0 1 368 1 1 2 0 1637 d01.gif 1 X
1 0 1 369 1 2 2 1 20787 d01.gif 1 X
1 0 1 370 1 2 2 1 1845 d03.gif 1 X
1 0 1 371 1 2 2 1 299 d05.gif 1 X
1 0 1 372 1 2 2 1 492 d07.gif 1 X
1 0 1 373 1 2 2 1 157 d06.gif 1 X
1 0 1 374 1 2 2 1 467 d02.gif 1 X
1 0 1 375 1 2 2 1 268 d02.gif 1 X
1 0 1 376 1 2 2 1 307 d08.gif 1 X
1 0 1 377 1 1 0 0 933 c06.gif 1 X
1 0 1 378 1 1 0 0 433 c08.gif 1 X
1 0 1 379 1 0 0 1 36 c07.gif 1 X
1 0 1 380 1 0 0 1 349 c02.gif 1 X
1 0 1 381 1 0 0 1 2996 c04.gif 1 X
1 0 1 382 1 0 2 0 377 d01.gif 1 X
1 0 1 383 1 0 2 0 874 d05.gif 1 X
1 0 1 384 1 1 2 0 4955 d05.gif 1 X
1 0 1 385 1 2 2 1 2251 d02.gif 1 X
1 0 1 386 1 2 2 1 301 d04.gif 1 X
1 0 1 387 1 0 2 0 3981 d07.gif 1 X
1 0 1 388 1 2 2 1 18346 d08.gif 1 X
1 0 1 389 1 1 2 0 3803 d08.gif 1 X
1 0 1 390 1 2 1 0 636 e08.gif 1 X
1 0 1 391 1 1 1 1 300 e07.gif 1 X
1 0 1 392 1 1 1 1 629 e04.gif 1 X
1 0 1 393 1 1 1 1 4764 e01.gif 1 X
1 0 1 394 1 1 2 0 1156 d06.gif 1 X
1 0 1 395 1 2 0 0 563 c01.gif 1 X
1 0 1 396 1 1 0 0 8426 c02.gif 1 X
1 0 1 397 1 0 0 1 2692 c07.gif 1 X
1 0 1 398 1 1 1 1 4572 e07.gif 1 X
1 0 1 399 1 1 1 1 1684 e04.gif 1 X
1 0 1 400 1 1 1 1 292 e05.gif 1 X
1 0 1 401 1 2 0 0 1436 c08.gif 1 X
1 0 1 402 1 2 0 0 67766 c03.gif 1 X
1 0 1 403 1 1 1 1 1469 e06.gif 1 X
1 0 1 404 1 1 1 1 548 e04.gif 1 X
1 0 1 405 1 1 1 1 748 e03.gif 1 X
1 0 1 406 1 1 0 0 453 c05.gif 1 X
1 0 1 407 1 0 1 0 308 e01.gif 1 X
1 0 1 408 2 1 0 0 482 c02.gif 1 X
1 0 1 409 2 2 0 0 3803 c03.gif 1 X
1 0 1 410 2 0 2 0 373 d08.gif 1 X
1 0 1 411 2 1 2 0 3019 d04.gif 1 X
1 0 1 412 2 2 2 1 1060 d04.gif 1 X
1 0 1 413 2 2 2 1 233 d03.gif 1 X
1 0 1 414 2 2 2 1 563 d04.gif 1 X
1 0 1 415 2 2 2 1 597 d07.gif 1 X
1 0 1 416 2 2 2 1 1372 d06.gif 1 X
1 0 1 417 2 2 0 0 1099 c05.gif 1 X
1 0 1 418 2 0 0 1 1804 c08.gif 1 X
1 0 1 419 2 0 0 1 557 c06.gif 1 X
1 0 1 420 2 0 0 1 12 c01.gif 1 X
1 0 1 421 2 0 0 1 1147 c06.gif 1 X
1 0 1 422 2 1 0 0 2050 c04.gif 1 X
1 0 1 423 2 0 1 0 467 e02.gif 1 X
1 0 1 424 2 1 1 1 2012 e03.gif 1 X
1 0 1 425 2 1 1 1 460 e04.gif 1 X
1 0 1 426 2 1 1 1 316 e08.gif 1 X
1 0 1 427 2 1 1 1 437 e05.gif 1 X
1 0 1 428 2 1 1 1 1293 e05.gif 1 X
1 0 1 429 2 1 1 1 1749 e01.gif 1 X
1 0 1 430 2 1 1 1 1674 e07.gif 1 X
1 0 1 431 2 2 1 0 1501 e08.gif 1 X
1 0 1 432 2 1 1 1 632 e02.gif 1 X
1 0 1 433 2 1 1 1 1020 e02.gif 1 X
1 0 1 434 2 1 0 0 300 c04.gif 1 X
1 0 1 435 2 2 0 0 1779 c05.gif 1 X
1 0 1 436 2 0 0 1 170 c05.gif 1 X
1 0 1 437 2 0 0 1 572 c01.gif 1 X
1 0 1 438 2 0 2 0 7508 d03.gif 1 X
1 0 1 439 2 2 2 1 268 d05.gif 1 X
1 0 1 440 2 2 2 1 125 d01.gif 1 X
1 0 1 441 2 1 2 0 66 d01.gif 1 X
1 0 1 442 2 2 2 1 180 d03.gif 1 X
1 0 1 443 2 0 2 0 268 d05.gif 1 X
1 0 1 444 2 2 2 1 224 d07.gif 1 X
1 0 1 445 2 2 2 1 86 d06.gif 1 X
1 0 1 446 2 2 2 1 101 d02.gif 1 X
1 0 1 447 2 2 2 1 332 d02.gif 1 X
1 0 1 448 2 2 2 1 20 d08.gif 1 X
1 0 1 449 2 2 0 0 389 c06.gif 1 X
1 0 1 450 2 0 0 1 301 c08.gif 1 X
1 0 1 451 2 0 0 1 258 c07.gif 1 X
1 0 1 452 2 0 0 1 229 c02.gif 1 X
1 0 1 453 2 0 0 1 133 c04.gif 1 X
1 0 1 454 2 0 2 0 13 d01.gif 1 X
1 0 1 455 2 2 2 1 443 d05.gif 1 X
1 0 1 456 2 2 2 1 604 d05.gif 1 X
1 0 1 457 2 2 2 1 316 d02.gif 1 X
1 0 1 458 2 2 2 1 533 d04.gif 1 X
1 0 1 459 2 2 2 1 1315 d07.gif 1 X
1 0 1 460 2 2 2 1 132 d08.gif 1 X
1 0 1 461 2 2 2 1 21995 d08.gif 1 X
1 0 1 462 2 2 1 0 1172 e08.gif 1 X
1 0 1 463 2 1 1 1 1115 e07.gif 1 X
1 0 1 464 2 1 1 1 19 e04.gif 1 X
1 0 1 465 2 1 1 1 37 e01.gif 1 X
1 0 1 466 2 1 2 0 146 d06.gif 1 X
1 0 1 467 2 2 0 0 59 c01.gif 1 X
1 0 1 468 2 0 0 1 20 c02.gif 1 X
1 0 1 469 2 0 0 1 100 c07.gif 1 X
1 0 1 470 2 0 1 0 28 e07.gif 1 X
1 0 1 471 2 1 1 1 25 e04.gif 1 X
1 0 1 472 2 1 1 1 8 e05.gif 1 X
1 0 1 473 2 1 0 0 3161 c08.gif 1 X
1 0 1 474 2 1 0 0 3668 c03.gif 1 X
1 0 1 475 2 2 1 0 76 e06.gif 1 X
1 0 1 476 2 2 1 0 33649 e04.gif 1 X
1 0 1 477 2 1 1 1 3692 e03.gif 1 X
1 0 1 478 2 1 0 0 13901 c05.gif 1 X
1 0 1 479 2 1 1 1 3131 e01.gif 1 X
1 0 1 480 3 0 0 1 1249 c02.gif 1 X
1 0 1 481 3 1 0 0 17395 c03.gif 1 X
1 0 1 482 3 1 2 0 7714 d08.gif 1 X
1 0 1 483 3 2 2 1 163 d04.gif 1 X
1 0 1 484 3 2 2 1 598 d04.gif 1 X
1 0 1 485 3 2 2 1 4755 d03.gif 1 X
1 0 1 486 3 1 2 0 10188 d04.gif 1 X
1 0 1 487 3 1 2 0 47200 d07.gif 1 X
1 0 1 488 3 2 2 1 705 d06.gif 1 X
1 0 1 489 3 2 0 0 597 c05.gif 1 X
1 0 1 490 3 2 0 0 1115 c08.gif 1 X
1 0 1 491 3 0 0 1 26 c06.gif 1 X
1 0 1 492 3 0 0 1 619 c01.gif 1 X
1 0 1 493 3 0 0 1 12 c06.gif 1 X
1 0 1 494 3 0 0 1 69 c04.gif 1 X
1 0 1 495 3 0 1 0 228 e02.gif 1 X
1 0 1 496 3 1 1 1 347 e03.gif 1 X
1 0 1 497 3 1 1 1 109 e04.gif 1 X
1 0 1 498 3 1 1 1 93 e08.gif 1 X
1 0 1 499 3 1 1 1 164 e05.gif 1 X
1 0 1 500 3 1 1 1 189 e05.gif 1 X
1 0 1 501 3 1 1 1 204 e01.gif 1 X
1 0 1 502 3 1 1 1 213 e07.gif 1 X
1 0 1 503 3 1 1 1 4 e08.gif 1 X
1 0 1 504 3 1 1 1 74 e02.gif 1 X
1 0 1 505 3 1 1 1 2837 e02.gif 1 X
1 0 1 506 3 1 0 0 155 c04.gif 1 X
1 0 1 507 3 0 0 1 139 c05.gif 1 X
1 0 1 508 3 0 0 1 53 c05.gif 1 X
1 0 1 509 3 0 0 1 12 c01.gif 1 X
1 0 1 510 3 0 2 0 1346 d03.gif 1 X
1 0 1 511 3 0 2 0 179 d05.gif 1 X
1 0 1 512 3 0 2 0 18 d01.gif 1 X
1 0 1 513 3 2 2 1 763 d01.gif 1 X
1 0 1 514 3 2 2 1 205 d03.gif 1 X
1 0 1 515 3 2 2 1 69 d05.gif 1 X
1 0 1 516 3 2 2 1 21 d07.gif 1 X
1 0 1 517 3 2 2 1 252 d06.gif 1 X
1 0 1 518 3 2 2 1 7397 d02.gif 1 X
1 0 1 519 3 2 2 1 22 d02.gif 1 X
1 0 1 520 3 2 2 1 180 d08.gif 1 X
1 0 1 521 3 2 0 0 45 c06.gif 1 X
1 0 1 522 3 2 0 0 941 c08.gif 1 X
1 0 1 523 3 0 0 1 170 c07.gif 1 X
1 0 1 524 3 0 0 1 156 c02.gif 1 X
1 0 1 525 3 0 0 1 35 c04.gif 1 X
1 0 1 526 3 0 2 0 93 d01.gif 1 X
1 0 1 527 3 2 2 1 92 d05.gif 1 X
1 0 1 528 3 2 2 1 77 d05.gif 1 X
1 0 1 529 3 2 2 1 171 d02.gif 1 X
1 0 1 530 3 2 2 1 188 d04.gif 1 X
1 0 1 531 3 2 2 1 99 d07.gif 1 X
1 0 1 532 3 2 2 1 13 d08.gif 1 X
1 0 1 533 3 2 2 1 28 d08.gif 1 X
1 0 1 534 3 2 1 0 12 e08.gif 1 X
1 0 1 535 3 1 1 1 106 e07.gif 1 X
1 0 1 536 3 1 1 1 156 e04.gif 1 X
1 0 1 537 3 1 1 1 4 e01.gif 1 X
1 0 1 538 3 1 2 0 194 d06.gif 1 X
1 0 1 539 3 1 0 0 1291 c01.gif 1 X
1 0 1 540 3 0 0 1 185 c02.gif 1 X
1 0 1 541 3 0 0 1 147 c07.gif 1 X
1 0 1 542 3 0 1 0 120 e07.gif 1 X
1 0 1 543 3 1 1 1 159 e04.gif 1 X
1 0 1 544 3 1 1 1 212 e05.gif 1 X
1 0 1 545 3 1 0 0 73 c08.gif 1 X
1 0 1 546 3 0 0 1 60 c03.gif 1 X
1 0 1 547 3 0 1 0 245 e06.gif 1 X
1 0 1 548 3 1 1 1 284 e04.gif 1 X
1 0 1 549 3 1 1 1 421 e03.gif 1 X
1 0 1 550 3 1 0 0 131 c05.gif 1 X
1 0 1 551 3 0 1 0 388 e01.gif 1 X
1 0 1 552 4 0 0 1 1593 c02.gif 1 X
1 0 1 553 4 0 0 1 178 c03.gif 1 X
1 0 1 554 4 0 2 0 77 d08.gif 1 X
1 0 1 555 4 2 2 1 20 d04.gif 1 X
1 0 1 556 4 2 2 1 490 d04.gif 1 X
1 0 1 557 4 2 2 1 453 d03.gif 1 X
1 0 1 558 4 2 2 1 148 d04.gif 1 X
1 0 1 559 4 2 2 1 139 d07.gif 1 X
1 0 1 560 4 2 2 1 411 d06.gif 1 X
1 0 1 561 4 2 0 0 181 c05.gif 1 X
1 0 1 562 4 1 0 0 3509 c08.gif 1 X
1 0 1 563 4 0 0 1 107 c06.gif 1 X
1 0 1 564 4 0 0 1 1 c01.gif 1 X
1 0 1 565 4 0 0 1 70 c06.gif 1 X
1 0 1 566 4 0 0 1 122 c04.gif 1 X
1 0 1 567 4 0 1 0 100 e02.gif 1 X
1 0 1 568 4 1 1 1 2 e03.gif 1 X
1 0 1 569 4 1 1 1 21 e04.gif 1 X
1 0 1 570 4 1 1 1 101 e08.gif 1 X
1 0 1 571 4 1 1 1 155 e05.gif 1 X
1 0 1 572 4 1 1 1 28 e05.gif 1 X
1 0 1 573 4 1 1 1 180 e01.gif 1 X
1 0 1 574 4 1 1 1 347 e07.gif 1 X
1 0 1 575 4 1 1 1 34 e08.gif 1 X
1 0 1 576 4 1 1 1 43 e02.gif 1 X
1 0 1 577 4 1 1 1 188 e02.gif 1 X
1 0 1 578 4 1 0 0 76 c04.gif 1 X
1 0 1 579 4 1 0 0 99 c05.gif 1 X
1 0 1 580 4 0 0 1 46 c05.gif 1 X
1 0 1 581 4 0 0 1 75 c01.gif 1 X
1 0 1 582 4 0 2 0 220 d03.gif 1 X
1 0 1 583 4 2 2 1 35 d05.gif 1 X
1 0 1 584 4 2 2 1 44 d01.gif 1 X
1 0 1 585 4 2 2 1 180 d01.gif 1 X
1 0 1 586 4 2 2 1 45 d03.gif 1 X
1 0 1 587 4 2 2 1 220 d05.gif 1 X
1 0 1 588 4 2 2 1 59 d07.gif 1 X
1 0 1 589 4 2 2 1 48 d06.gif 1 X
1 0 1 590 4 2 2 1 40 d02.gif 1 X
1 0 1 591 4 2 2 1 121 d02.gif 1 X
1 0 1 592 4 2 2 1 83 d08.gif 1 X
1 0 1 593 4 2 0 0 181 c06.gif 1 X
1 0 1 594 4 0 0 1 107 c08.gif 1 X
1 0 1 595 4 0 0 1 4 c07.gif 1 X
1 0 1 596 4 0 0 1 87 c02.gif 1 X
1 0 1 597 4 0 0 1 219 c04.gif 1 X
1 0 1 598 4 0 2 0 105 d01.gif 1 X
1 0 1 599 4 2 2 1 67 d05.gif 1 X
1 0 1 600 4 2 2 1 77 d05.gif 1 X
1 0 1 601 4 2 2 1 24 d02.gif 1 X
1 0 1 602 4 2 2 1 185 d04.gif 1 X
1 0 1 603 4 2 2 1 1356 d07.gif 1 X
1 0 1 604 4 2 2 1 315 d08.gif 1 X
1 0 1 605 4 2 2 1 170 d08.gif 1 X
1 0 1 606 4 2 1 0 228 e08.gif 1 X
1 0 1 607 4 1 1 1 52 e07.gif 1 X
1 0 1 608 4 1 1 1 29 e04.gif 1 X
1 0 1 609 4 1 1 1 202 e01.gif 1 X
1 0 1 610 4 1 2 0 203 d06.gif 1 X
1 0 1 611 4 1 0 0 44 c01.gif 1 X
1 0 1 612 4 1 0 0 148 c02.gif 1 X
1 0 1 613 4 0 0 1 156 c07.gif 1 X
1 0 1 614 4 0 1 0 220 e07.gif 1 X
1 0 1 615 4 1 1 1 469 e04.gif 1 X
1 0 1 616 4 1 1 1 181 e05.gif 1 X
1 0 1 617 4 1 0 0 412 c08.gif 1 X
1 0 1 618 4 0 0 1 20 c03.gif 1 X
1 0 1 619 4 0 1 0 188 e06.gif 1 X
1 0 1 620 4 1 1 1 148 e04.gif 1 X
1 0 1 621 4 1 1 1 115 e03.gif 1 X
1 0 1 622 4 1 0 0 197 c05.gif 1 X
1 0 1 623 4 0 1 0 10 e01.gif 1 X
1 0 3 624 10 0 2 0 1504 d02.gif 1 1
1 0 3 625 10 0 2 0 137 d08.gif 1 1
1 0 3 626 10 1 2 0 970 d05.gif 1 1
1 0 3 627 10 2 0 0 1201 c02.gif 1 1
1 0 3 628 10 2 1 0 240 e13.gif 1 0
1 0 3 629 10 1 2 0 106 d09.gif 1 0
1 0 3 630 10 1 1 1 194 e01.gif 1 1
1 0 3 631 10 1 0 0 201 c01.gif 1 1
1 0 3 632 10 2 2 1 1018 d16.gif 1 0
1 0 3 633 10 2 0 0 297 c12.gif 1 0
1 0 3 634 10 1 1 1 247 e16.gif 1 0
1 0 3 635 10 0 0 1 255 c11.gif 1 0
1 0 3 636 10 0 0 1 1120 c08.gif 1 1
1 0 3 637 10 1 0 0 282 c05.gif 1 1
1 0 3 638 10 0 2 0 307 d01.gif 1 1
1 0 3 639 10 0 2 0 177 d14.gif 1 0
1 0 3 640 10 1 0 0 258 c13.gif 1 0
1 0 3 641 10 2 1 0 440 e04.gif 1 1
1 0 3 642 10 1 2 0 66 d13.gif 1 0
1 0 3 643 10 2 2 1 921 d11.gif 1 0
1 0 3 644 10 1 1 1 1346 e12.gif 1 0
1 0 3 645 10 0 0 1 10 c03.gif 1 1
1 0 3 646 10 2 0 0 487 c16.gif 1 0
1 0 3 647 10 1 1 1 193 e08.gif 1 1
1 0 3 648 10 0 2 0 305 d04.gif 1 1
1 0 3 649 10 2 0 0 433 c10.gif 1 0
1 0 3 650 10 1 2 0 503 d03.gif 1 1
1 0 3 651 10 2 2 1 1683 d10.gif 1 0
1 0 3 652 10 1 2 0 489 d12.gif 1 0
1 0 3 653 10 1 0 0 641 c14.gif 1 0
1 0 3 654 10 1 1 1 273 e09.gif 1 0
1 0 3 655 10 1 1 1 298 e14.gif 1 0
1 0 3 656 10 1 2 0 1712 d07.gif 1 1
1 0 3 657 10 0 1 0 1960 e02.gif 1 1
1 0 3 658 10 0 1 0 240 e06.gif 1 1
1 0 3 659 10 0 0 1 784 c09.gif 1 0
1 0 3 660 10 2 0 0 290 c15.gif 1 0
1 0 3 661 10 2 1 0 202 e07.gif 1 1
1 0 3 662 10 1 1 1 402 e05.gif 1 1
1 0 3 663 10 2 1 0 184 e11.gif 1 0
1 0 3 664 10 2 0 0 17215 c04.gif 1 1
1 0 3 665 10 0 0 1 4537 c06.gif 1 1
1 0 3 666 10 1 1 1 1106 e15.gif 1 0
1 0 3 667 10 1 2 0 83773 d15.gif 1 0
1 0 3 668 10 1 1 1 19071 e03.gif 1 1
1 0 3 669 10 1 1 1 215 e10.gif 1 0
1 0 3 670 10 0 2 0 974 d06.gif 1 1
1 0 3 671 10 2 0 0 112625 c07.gif 1 1
10 1 1 0 1 0 0 1 1096 c02.gif 1 X 
10 1 1 1 1 1 0 0 1017 c01.gif 1 X 
10 1 1 2 1 0 2 0 192 a01.gif 1 X 
10 1 1 3 1 2 2 1 683 a05.gif 1 X 
10 1 1 4 1 2 2 1 823 a02.gif 1 X 
10 1 1 5 1 1 2 0 360 a07.gif 1 X 
10 1 1 6 1 2 2 1 147 a05.gif 1 X 
10 1 1 7 1 0 2 0 506 a04.gif 1 X 
10 1 1 8 1 2 2 1 186 a04.gif 1 X 
10 1 1 9 1 0 2 0 523 a01.gif 1 X 
10 1 1 10 1 2 1 0 505 b01.gif 1 X 
10 1 1 11 1 1 1 1 418 b05.gif 1 X 
10 1 1 12 1 1 1 1 20 b06.gif 1 X 
10 1 1 13 1 2 1 0 497 b02.gif 1 X 
10 1 1 14 1 1 1 1 896 b04.gif 1 X 
10 1 1 15 1 2 1 0 313 b08.gif 1 X 
10 1 1 16 1 1 1 1 79 b04.gif 1 X 
10 1 1 17 1 1 1 1 44 b03.gif 1 X 
10 1 1 18 1 2 1 0 280 b05.gif 1 X 
10 1 1 19 1 1 0 0 588 c07.gif 1 X 
10 1 1 20 1 1 0 0 258 c03.gif 1 X 
10 1 1 21 1 0 0 1 810 c05.gif 1 X 
10 1 1 22 1 1 0 0 361 c05.gif 1 X 
10 1 1 23 1 2 0 0 415 c01.gif 1 X 
10 1 1 24 1 1 0 0 608 c05.gif 1 X 
10 1 1 25 1 0 0 1 311 c03.gif 1 X 
10 1 1 26 1 0 0 1 442 c03.gif 1 X 
10 1 1 27 1 1 1 1 1280 b04.gif 1 X 
10 1 1 28 1 0 1 0 583 b07.gif 1 X 
10 1 1 29 1 1 1 1 433 b02.gif 1 X 
10 1 1 30 1 1 0 0 384 c08.gif 1 X 
10 1 1 31 1 2 0 0 415 c07.gif 1 X 
10 1 1 32 1 0 0 1 227 c06.gif 1 X 
10 1 1 33 1 2 0 0 371 c02.gif 1 X 
10 1 1 34 1 0 0 1 259 c07.gif 1 X 
10 1 1 35 1 2 0 0 947 c08.gif 1 X 
10 1 1 36 1 2 0 0 279 c04.gif 1 X 
10 1 1 37 1 0 0 1 208 c01.gif 1 X 
10 1 1 38 1 0 0 1 225 c04.gif 1 X 
10 1 1 39 1 0 2 0 241 a01.gif 1 X 
10 1 1 40 1 1 2 0 1563 a02.gif 1 X 
10 1 1 41 1 2 0 0 224 c06.gif 1 X 
10 1 1 42 1 2 1 0 817 b01.gif 1 X 
10 1 1 43 1 0 2 0 239 a04.gif 1 X 
10 1 1 44 1 1 0 0 91 c08.gif 1 X 
10 1 1 45 1 0 0 1 90 c03.gif 1 X 
10 1 1 46 1 0 0 1 618 c06.gif 1 X 
10 1 1 47 1 0 0 1 1018 c01.gif 1 X 
10 1 1 48 1 1 2 0 479 a06.gif 1 X 
10 1 1 49 1 2 2 1 1042 a01.gif 1 X 
10 1 1 50 1 2 2 1 1810 a03.gif 1 X 
10 1 1 51 1 2 0 0 12 c04.gif 1 X 
10 1 1 52 1 0 0 1 602 c08.gif 1 X 
10 1 1 53 1 1 0 0 27 c04.gif 1 X 
10 1 1 54 1 2 0 0 473 c05.gif 1 X 
10 1 1 55 1 0 1 0 111 b02.gif 1 X 
10 1 1 56 1 1 1 1 2431 b06.gif 1 X 
10 1 1 57 1 0 1 0 49 b03.gif 1 X 
10 1 1 58 1 0 2 0 399 a05.gif 1 X 
10 1 1 59 1 2 2 1 2913 a08.gif 1 X 
10 1 1 60 1 2 2 1 123 a08.gif 1 X 
10 1 1 61 1 2 2 1 3455 a02.gif 1 X 
10 1 1 62 1 2 2 1 2354 a07.gif 1 X 
10 1 1 63 1 2 1 0 763 b01.gif 1 X 
10 1 1 64 1 2 1 0 81 b03.gif 1 X 
10 1 1 65 1 2 2 1 403 a06.gif 1 X 
10 1 1 66 1 2 2 1 940 a03.gif 1 X 
10 1 1 67 1 2 1 0 20 b08.gif 1 X 
10 1 1 68 1 0 2 0 103 a03.gif 1 X 
10 1 1 69 1 0 2 0 322 a06.gif 1 X 
10 1 1 70 1 1 2 0 5120 a04.gif 1 X 
10 1 1 71 1 1 1 1 380 b05.gif 1 X 
10 1 1 72 2 1 0 0 649 c02.gif 1 X 
10 1 1 73 2 0 0 1 282 c01.gif 1 X 
10 1 1 74 2 0 2 0 306 a01.gif 1 X 
10 1 1 75 2 2 2 1 83 a05.gif 1 X 
10 1 1 76 2 0 2 0 242 a02.gif 1 X 
10 1 1 77 2 1 2 0 578 a07.gif 1 X 
10 1 1 78 2 2 2 1 312 a05.gif 1 X 
10 1 1 79 2 2 2 1 240 a04.gif 1 X 
10 1 1 80 2 2 2 1 329 a04.gif 1 X 
10 1 1 81 2 2 2 1 339 a01.gif 1 X 
10 1 1 82 2 1 1 1 267 b01.gif 1 X 
10 1 1 83 2 0 1 0 290 b05.gif 1 X 
10 1 1 84 2 1 1 1 76 b06.gif 1 X 
10 1 1 85 2 2 1 0 422 b02.gif 1 X 
10 1 1 86 2 1 1 1 129 b04.gif 1 X 
10 1 1 87 2 2 1 0 25 b08.gif 1 X 
10 1 1 88 2 1 1 1 434 b04.gif 1 X 
10 1 1 89 2 1 1 1 498 b03.gif 1 X 
10 1 1 90 2 1 1 1 612 b05.gif 1 X 
10 1 1 91 2 1 0 0 74 c07.gif 1 X 
10 1 1 92 2 1 0 0 608 c03.gif 1 X 
10 1 1 93 2 1 0 0 2985 c05.gif 1 X 
10 1 1 94 2 2 0 0 273 c05.gif 1 X 
10 1 1 95 2 2 0 0 104 c01.gif 1 X 
10 1 1 96 2 2 0 0 783 c05.gif 1 X 
10 1 1 97 2 2 0 0 345 c03.gif 1 X 
10 1 1 98 2 2 0 0 332 c03.gif 1 X 
10 1 1 99 2 0 1 0 286 b04.gif 1 X 
10 1 1 100 2 1 1 1 320 b07.gif 1 X 
10 1 1 101 2 1 1 1 331 b02.gif 1 X 
10 1 1 102 2 2 0 0 889 c08.gif 1 X 
10 1 1 103 2 2 0 0 199 c07.gif 1 X 
10 1 1 104 2 2 0 0 311 c06.gif 1 X 
10 1 1 105 2 2 0 0 248 c02.gif 1 X 
10 1 1 106 2 0 0 1 503 c07.gif 1 X 
10 1 1 107 2 0 0 1 7 c08.gif 1 X 
10 1 1 108 2 1 0 0 4406 c04.gif 1 X 
10 1 1 109 2 1 0 0 224 c01.gif 1 X 
10 1 1 110 2 2 0 0 224 c04.gif 1 X 
10 1 1 111 2 1 2 0 1020 a01.gif 1 X 
10 1 1 112 2 0 2 0 272 a02.gif 1 X 
10 1 1 113 2 1 0 0 1 c06.gif 1 X 
10 1 1 114 2 1 1 1 407 b01.gif 1 X 
10 1 1 115 2 2 2 1 188 a04.gif 1 X 
10 1 1 116 2 2 0 0 130 c08.gif 1 X 
10 1 1 117 2 2 0 0 225 c03.gif 1 X 
10 1 1 118 2 0 0 1 88 c06.gif 1 X 
10 1 1 119 2 0 0 1 343 c01.gif 1 X 
10 1 1 120 2 0 2 0 131 a06.gif 1 X 
10 1 1 121 2 1 2 0 39 a01.gif 1 X 
10 1 1 122 2 1 2 0 1209 a03.gif 1 X 
10 1 1 123 2 1 0 0 220 c04.gif 1 X 
10 1 1 124 2 2 0 0 98 c08.gif 1 X 
10 1 1 125 2 0 0 1 266 c04.gif 1 X 
10 1 1 126 2 0 0 1 250 c05.gif 1 X 
10 1 1 127 2 0 1 0 75 b02.gif 1 X 
10 1 1 128 2 1 1 1 223 b06.gif 1 X 
10 1 1 129 2 1 1 1 561 b03.gif 1 X 
10 1 1 130 2 1 2 0 73 a05.gif 1 X 
10 1 1 131 2 2 2 1 233 a08.gif 1 X 
10 1 1 132 2 1 2 0 65 a08.gif 1 X 
10 1 1 133 2 0 2 0 65 a02.gif 1 X 
10 1 1 134 2 2 2 1 735 a07.gif 1 X 
10 1 1 135 2 1 1 1 228 b01.gif 1 X 
10 1 1 136 2 1 1 1 507 b03.gif 1 X 
10 1 1 137 2 1 2 0 1225 a06.gif 1 X 
10 1 1 138 2 1 2 0 649 a03.gif 1 X 
10 1 1 139 2 1 1 1 247 b08.gif 1 X 
10 1 1 140 2 2 2 1 184 a03.gif 1 X 
10 1 1 141 2 2 2 1 258 a06.gif 1 X 
10 1 1 142 2 2 2 1 225 a04.gif 1 X 
10 1 1 143 2 2 1 0 232 b05.gif 1 X 
10 1 1 144 3 1 0 0 406 c02.gif 1 X 
10 1 1 145 3 0 0 1 233 c01.gif 1 X 
10 1 1 146 3 0 2 0 585 a01.gif 1 X 
10 1 1 147 3 1 2 0 223 a05.gif 1 X 
10 1 1 148 3 2 2 1 235 a02.gif 1 X 
10 1 1 149 3 2 2 1 307 a07.gif 1 X 
10 1 1 150 3 2 2 1 811 a05.gif 1 X 
10 1 1 151 3 2 2 1 305 a04.gif 1 X 
10 1 1 152 3 2 2 1 806 a04.gif 1 X 
10 1 1 153 3 2 2 1 329 a01.gif 1 X 
10 1 1 154 3 2 1 0 239 b01.gif 1 X 
10 1 1 155 3 2 1 0 32 b05.gif 1 X 
10 1 1 156 3 2 1 0 184 b06.gif 1 X 
10 1 1 157 3 2 1 0 192 b02.gif 1 X 
10 1 1 158 3 0 1 0 15 b04.gif 1 X 
10 1 1 159 3 1 1 1 607 b08.gif 1 X 
10 1 1 160 3 1 1 1 841 b04.gif 1 X 
10 1 1 161 3 1 1 1 266 b03.gif 1 X 
10 1 1 162 3 1 1 1 537 b05.gif 1 X 
10 1 1 163 3 2 0 0 584 c07.gif 1 X 
10 1 1 164 3 1 0 0 600 c03.gif 1 X 
10 1 1 165 3 0 0 1 39 c05.gif 1 X 
10 1 1 166 3 0 0 1 17 c05.gif 1 X 
10 1 1 167 3 2 0 0 159 c01.gif 1 X 
10 1 1 168 3 1 0 0 511 c05.gif 1 X 
10 1 1 169 3 0 0 1 391 c03.gif 1 X 
10 1 1 170 3 0 0 1 345 c03.gif 1 X 
10 1 1 171 3 0 1 0 661 b04.gif 1 X 
10 1 1 172 3 2 1 0 655 b07.gif 1 X 
10 1 1 173 3 1 1 1 768 b02.gif 1 X 
10 1 1 174 3 2 0 0 224 c08.gif 1 X 
10 1 1 175 3 1 0 0 280 c07.gif 1 X 
10 1 1 176 3 0 0 1 248 c06.gif 1 X 
10 1 1 177 3 1 0 0 898 c02.gif 1 X 
10 1 1 178 3 2 0 0 56 c07.gif 1 X 
10 1 1 179 3 0 0 1 159 c08.gif 1 X 
10 1 1 180 3 2 0 0 792 c04.gif 1 X 
10 1 1 181 3 1 0 0 690 c01.gif 1 X 
10 1 1 182 3 0 0 1 201 c04.gif 1 X 
10 1 1 183 3 0 2 0 390 a01.gif 1 X 
10 1 1 184 3 1 2 0 304 a02.gif 1 X 
10 1 1 185 3 1 0 0 71 c06.gif 1 X 
10 1 1 186 3 2 1 0 264 b01.gif 1 X 
10 1 1 187 3 0 2 0 694 a04.gif 1 X 
10 1 1 188 3 2 0 0 401 c08.gif 1 X 
10 1 1 189 3 0 0 1 128 c03.gif 1 X 
10 1 1 190 3 0 0 1 673 c06.gif 1 X 
10 1 1 191 3 0 0 1 562 c01.gif 1 X 
10 1 1 192 3 0 2 0 447 a06.gif 1 X 
10 1 1 193 3 1 2 0 201 a01.gif 1 X 
10 1 1 194 3 2 2 1 489 a03.gif 1 X 
10 1 1 195 3 2 0 0 184 c04.gif 1 X 
10 1 1 196 3 1 0 0 513 c08.gif 1 X 
10 1 1 197 3 0 0 1 208 c04.gif 1 X 
10 1 1 198 3 2 0 0 211 c05.gif 1 X 
10 1 1 199 3 1 1 1 905 b02.gif 1 X 
10 1 1 200 3 1 1 1 586 b06.gif 1 X 
10 1 1 201 3 2 1 0 239 b03.gif 1 X 
10 1 1 202 3 1 2 0 249 a05.gif 1 X 
10 1 1 203 3 2 2 1 64 a08.gif 1 X 
10 1 1 204 3 2 2 1 516 a08.gif 1 X 
10 1 1 205 3 1 2 0 307 a02.gif 1 X 
10 1 1 206 3 2 2 1 248 a07.gif 1 X 
10 1 1 207 3 2 1 0 178 b01.gif 1 X 
10 1 1 208 3 1 1 1 207 b03.gif 1 X 
10 1 1 209 3 0 2 0 1416 a06.gif 1 X 
10 1 1 210 3 1 2 0 99 a03.gif 1 X 
10 1 1 211 3 1 1 1 226 b08.gif 1 X 
10 1 1 212 3 2 2 1 24 a03.gif 1 X 
10 1 1 213 3 2 2 1 271 a06.gif 1 X 
10 1 1 214 3 2 2 1 204 a04.gif 1 X 
10 1 1 215 3 2 1 0 1587 b05.gif 1 X 
10 1 1 216 4 2 0 0 536 c02.gif 1 X 
10 1 1 217 4 1 0 0 82 c01.gif 1 X 
10 1 1 218 4 1 2 0 232 a01.gif 1 X 
10 1 1 219 4 2 2 1 368 a05.gif 1 X 
10 1 1 220 4 1 2 0 351 a02.gif 1 X 
10 1 1 221 4 2 2 1 231 a07.gif 1 X 
10 1 1 222 4 1 2 0 290 a05.gif 1 X 
10 1 1 223 4 1 2 0 147 a04.gif 1 X 
10 1 1 224 4 2 2 1 335 a04.gif 1 X 
10 1 1 225 4 2 2 1 311 a01.gif 1 X 
10 1 1 226 4 1 1 1 193 b01.gif 1 X 
10 1 1 227 4 1 1 1 98 b05.gif 1 X 
10 1 1 228 4 2 1 0 72 b06.gif 1 X 
10 1 1 229 4 0 1 0 136 b02.gif 1 X 
10 1 1 230 4 2 1 0 105 b04.gif 1 X 
10 1 1 231 4 1 1 1 248 b08.gif 1 X 
10 1 1 232 4 2 1 0 202 b04.gif 1 X 
10 1 1 233 4 1 1 1 553 b03.gif 1 X 
10 1 1 234 4 1 1 1 274 b05.gif 1 X 
10 1 1 235 4 1 0 0 96 c07.gif 1 X 
10 1 1 236 4 2 0 0 257 c03.gif 1 X 
10 1 1 237 4 1 0 0 248 c05.gif 1 X 
10 1 1 238 4 2 0 0 176 c05.gif 1 X 
10 1 1 239 4 0 0 1 366 c01.gif 1 X 
10 1 1 240 4 0 0 1 362 c05.gif 1 X 
10 1 1 241 4 0 0 1 217 c03.gif 1 X 
10 1 1 242 4 0 0 1 91 c03.gif 1 X 
10 1 1 243 4 0 1 0 40 b04.gif 1 X 
10 1 1 244 4 1 1 1 703 b07.gif 1 X 
10 1 1 245 4 1 1 1 201 b02.gif 1 X 
10 1 1 246 4 1 0 0 208 c08.gif 1 X 
10 1 1 247 4 0 0 1 399 c07.gif 1 X 
10 1 1 248 4 0 0 1 56 c06.gif 1 X 
10 1 1 249 4 0 0 1 256 c02.gif 1 X 
10 1 1 250 4 0 0 1 66 c07.gif 1 X 
10 1 1 251 4 0 0 1 49 c08.gif 1 X 
10 1 1 252 4 0 0 1 345 c04.gif 1 X 
10 1 1 253 4 0 0 1 235 c01.gif 1 X 
10 1 1 254 4 0 0 1 235 c04.gif 1 X 
10 1 1 255 4 0 2 0 112 a01.gif 1 X 
10 1 1 256 4 2 2 1 88 a02.gif 1 X 
10 1 1 257 4 2 0 0 90 c06.gif 1 X 
10 1 1 258 4 0 1 0 449 b01.gif 1 X 
10 1 1 259 4 1 2 0 300 a04.gif 1 X 
10 1 1 260 4 2 0 0 311 c08.gif 1 X 
10 1 1 261 4 0 0 1 455 c03.gif 1 X 
10 1 1 262 4 0 0 1 200 c06.gif 1 X 
10 1 1 263 4 0 0 1 240 c01.gif 1 X 
10 1 1 264 4 0 2 0 201 a06.gif 1 X 
10 1 1 265 4 1 2 0 231 a01.gif 1 X 
10 1 1 266 4 2 2 1 256 a03.gif 1 X 
10 1 1 267 4 2 0 0 113 c04.gif 1 X 
10 1 1 268 4 1 0 0 400 c08.gif 1 X 
10 1 1 269 4 2 0 0 81 c04.gif 1 X 
10 1 1 270 4 1 0 0 738 c05.gif 1 X 
10 1 1 271 4 0 1 0 65 b02.gif 1 X 
10 1 1 272 4 0 1 0 170 b06.gif 1 X 
10 1 1 273 4 0 1 0 111 b03.gif 1 X 
10 1 1 274 4 0 2 0 25 a05.gif 1 X 
10 1 1 275 4 0 2 0 51 a08.gif 1 X 
10 1 1 276 4 0 2 0 424 a08.gif 1 X 
10 1 1 277 4 0 2 0 360 a02.gif 1 X 
10 1 1 278 4 1 2 0 680 a07.gif 1 X 
10 1 1 279 4 2 1 0 232 b01.gif 1 X 
10 1 1 280 4 2 1 0 222 b03.gif 1 X 
10 1 1 281 4 1 2 0 952 a06.gif 1 X 
10 1 1 282 4 0 2 0 6 a03.gif 1 X 
10 1 1 283 4 1 1 1 309 b08.gif 1 X 
10 1 1 284 4 2 2 1 320 a03.gif 1 X 
10 1 1 285 4 2 2 1 440 a06.gif 1 X 
10 1 1 286 4 2 2 1 201 a04.gif 1 X 
10 1 1 287 4 2 1 0 288 b05.gif 1 X 
10 1 3 288 5 1 1 1 621 b01.gif 1 1
10 1 3 289 5 1 0 0 1158 c02.gif 1 1
10 1 3 290 5 2 1 0 705 b07.gif 1 1
10 1 3 291 5 0 0 1 386 c01.gif 1 1
10 1 3 292 5 1 2 0 1041 a04.gif 1 1
10 1 3 293 5 2 2 1 833 a08.gif 1 1
10 1 3 294 5 2 2 1 183 a10.gif 1 0
10 1 3 295 5 1 1 1 969 b11.gif 1 0
10 1 3 296 5 2 2 1 671 a11.gif 1 0
10 1 3 297 5 1 2 0 401 a13.gif 1 0
10 1 3 298 5 2 1 0 269 b09.gif 1 0
10 1 3 299 5 0 1 0 305 b03.gif 1 1
10 1 3 300 5 0 2 0 512 a16.gif 1 0
10 1 3 301 5 1 2 0 521 a14.gif 1 0
10 1 3 302 5 2 0 0 415 c15.gif 1 0
10 1 3 303 5 1 1 1 638 b16.gif 1 0
10 1 3 304 5 2 1 0 71 b05.gif 1 1
10 1 3 305 5 1 0 0 94 c09.gif 1 0
10 1 3 306 5 2 0 0 431 c16.gif 1 0
10 1 3 307 5 2 0 0 406 c05.gif 1 1
10 1 3 308 5 2 2 1 335 a02.gif 1 1
10 1 3 309 5 0 1 0 303 b13.gif 1 0
10 1 3 310 5 1 0 0 574 c14.gif 1 0
10 1 3 311 5 2 0 0 1253 c13.gif 1 0
10 1 3 312 5 2 1 0 439 b02.gif 1 1
10 1 3 313 5 1 0 0 269 c11.gif 1 0
10 1 3 314 5 0 1 0 486 b14.gif 1 0
10 1 3 315 5 0 1 0 536 b08.gif 1 1
10 1 3 316 5 0 2 0 1662 a03.gif 1 1
10 1 3 317 5 1 2 0 1415 a06.gif 1 1
10 1 3 318 5 1 2 0 573 a15.gif 1 0
10 1 3 319 5 1 1 1 3157 b10.gif 1 0
10 1 3 320 5 1 0 0 291 c10.gif 1 0
10 1 3 321 5 2 2 1 586 a09.gif 1 0
10 1 3 322 5 1 2 0 246 a07.gif 1 1
10 1 3 323 5 0 0 1 71 c06.gif 1 1
10 1 3 324 5 1 0 0 456 c08.gif 1 1
10 1 3 325 5 2 0 0 23 c04.gif 1 1
10 1 3 326 5 0 2 0 272 a05.gif 1 1
10 1 3 327 5 0 1 0 360 b06.gif 1 1
10 1 3 328 5 1 1 1 878 b12.gif 1 0
10 1 3 329 5 2 0 0 38 c12.gif 1 0
10 1 3 330 5 1 1 1 431 b15.gif 1 0
10 1 3 331 5 2 1 0 583 b04.gif 1 1
10 1 3 332 5 2 2 1 341 a12.gif 1 0
10 1 3 333 5 1 0 0 1078 c03.gif 1 1
10 1 3 334 5 1 2 0 373 a01.gif 1 1
10 1 3 335 5 2 0 0 31 c07.gif 1 1
10 1 1 336 1 1 1 1 369 e05.gif 0 X
10 1 1 337 1 2 1 0 399 e02.gif 0 X
10 1 1 338 1 1 1 1 454 e08.gif 0 X
10 1 1 339 1 1 2 0 513 d06.gif 0 X
10 1 1 340 1 2 1 0 225 e08.gif 0 X
10 1 1 341 1 0 1 0 50 e05.gif 0 X
10 1 1 342 1 2 2 1 960 d02.gif 0 X
10 1 1 343 1 2 2 1 249 d08.gif 0 X
10 1 1 344 1 2 0 0 328 f05.gif 0 X
10 1 1 345 1 0 1 0 455 e03.gif 0 X
10 1 1 346 1 2 1 0 407 e03.gif 0 X
10 1 1 347 1 2 0 0 328 f08.gif 0 X
10 1 1 348 1 2 1 0 343 e02.gif 0 X
10 1 1 349 1 0 2 0 386 d03.gif 0 X
10 1 1 350 1 2 2 1 249 d05.gif 0 X
10 1 1 351 1 2 0 0 274 f07.gif 0 X
10 1 1 352 1 2 2 1 374 d03.gif 0 X
10 1 1 353 1 1 0 0 1177 f04.gif 0 X
10 1 1 354 1 1 2 0 409 d01.gif 0 X
10 1 1 355 1 0 0 1 297 f08.gif 0 X
10 1 1 356 1 2 1 0 425 e01.gif 0 X
10 1 1 357 1 0 0 1 608 f01.gif 0 X
10 1 1 358 1 1 1 1 547 e01.gif 0 X
10 1 1 359 1 1 1 1 171 e02.gif 0 X
10 1 1 360 1 1 2 0 249 d08.gif 0 X
10 1 1 361 1 2 0 0 122 f02.gif 0 X
10 1 1 362 1 0 1 0 600 e03.gif 0 X
10 1 1 363 1 2 0 0 223 f07.gif 0 X
10 1 1 364 1 0 2 0 31 d06.gif 0 X
10 1 1 365 1 2 2 1 107 d02.gif 0 X
10 1 1 366 1 0 1 0 88 e06.gif 0 X
10 1 1 367 1 2 2 1 215 d07.gif 0 X
10 1 1 368 1 1 2 0 243 d06.gif 0 X
10 1 1 369 1 2 2 1 3 d02.gif 0 X
10 1 1 370 1 0 0 1 286 f07.gif 0 X
10 1 1 371 1 2 1 0 226 e06.gif 0 X
10 1 1 372 1 2 2 1 241 d04.gif 0 X
10 1 1 373 1 2 1 0 186 e07.gif 0 X
10 1 1 374 1 2 2 1 200 d05.gif 0 X
10 1 1 375 1 1 0 0 648 f04.gif 0 X
10 1 1 376 1 0 1 0 8 e04.gif 0 X
10 1 1 377 1 2 0 0 73 f03.gif 0 X
10 1 1 378 1 2 2 1 168 d06.gif 0 X
10 1 1 379 1 1 1 1 852 e01.gif 0 X
10 1 1 380 1 0 0 1 312 f01.gif 0 X
10 1 1 381 1 0 2 0 1588 d08.gif 0 X
10 1 1 382 1 1 1 1 100 e07.gif 0 X
10 1 1 383 1 2 0 0 1 f07.gif 0 X
10 1 1 384 1 1 1 1 294 e04.gif 0 X
10 1 1 385 1 1 0 0 208 f06.gif 0 X
10 1 1 386 1 0 1 0 161 e01.gif 0 X
10 1 1 387 1 1 0 0 40 f01.gif 0 X
10 1 1 388 1 0 0 1 232 f03.gif 0 X
10 1 1 389 1 0 0 1 241 f08.gif 0 X
10 1 1 390 1 0 2 0 111 d07.gif 0 X
10 1 1 391 1 2 0 0 19 f03.gif 0 X
10 1 1 392 1 2 1 0 124 e02.gif 0 X
10 1 1 393 1 1 2 0 890 d04.gif 0 X
10 1 1 394 1 2 1 0 201 e08.gif 0 X
10 1 1 395 1 1 1 1 306 e04.gif 0 X
10 1 1 396 1 1 2 0 11 d01.gif 0 X
10 1 1 397 1 2 0 0 136 f05.gif 0 X
10 1 1 398 1 0 0 1 144 f02.gif 0 X
10 1 1 399 1 0 1 0 185 e04.gif 0 X
10 1 1 400 1 1 0 0 439 f06.gif 0 X
10 1 1 401 1 2 2 1 183 d07.gif 0 X
10 1 1 402 1 1 1 1 426 e07.gif 0 X
10 1 1 403 1 2 2 1 308 d03.gif 0 X
10 1 1 404 1 2 1 0 34 e06.gif 0 X
10 1 1 405 1 0 0 1 312 f04.gif 0 X
10 1 1 406 1 1 1 1 658 e08.gif 0 X
10 1 1 407 1 2 1 0 311 e05.gif 0 X
10 1 1 408 2 0 1 0 1470 e05.gif 0 X
10 1 1 409 2 1 1 1 67 e02.gif 0 X
10 1 1 410 2 1 1 1 153 e08.gif 0 X
10 1 1 411 2 2 2 1 2280 d06.gif 0 X
10 1 1 412 2 2 1 0 177 e08.gif 0 X
10 1 1 413 2 1 1 1 346 e05.gif 0 X
10 1 1 414 2 1 2 0 200 d02.gif 0 X
10 1 1 415 2 0 2 0 71 d08.gif 0 X
10 1 1 416 2 2 0 0 223 f05.gif 0 X
10 1 1 417 2 0 1 0 33 e03.gif 0 X
10 1 1 418 2 2 1 0 650 e03.gif 0 X
10 1 1 419 2 1 0 0 154 f08.gif 0 X
10 1 1 420 2 1 1 1 15 e02.gif 0 X
10 1 1 421 2 2 2 1 136 d03.gif 0 X
10 1 1 422 2 0 2 0 476 d05.gif 0 X
10 1 1 423 2 2 0 0 727 f07.gif 0 X
10 1 1 424 2 1 2 0 1083 d03.gif 0 X
10 1 1 425 2 1 0 0 1649 f04.gif 0 X
10 1 1 426 2 0 2 0 80 d01.gif 0 X
10 1 1 427 2 2 0 0 345 f08.gif 0 X
10 1 1 428 2 0 1 0 424 e01.gif 0 X
10 1 1 429 2 1 0 0 106 f01.gif 0 X
10 1 1 430 2 1 1 1 631 e01.gif 0 X
10 1 1 431 2 2 1 0 232 e02.gif 0 X
10 1 1 432 2 1 2 0 248 d08.gif 0 X
10 1 1 433 2 0 0 1 327 f02.gif 0 X
10 1 1 434 2 0 1 0 280 e03.gif 0 X
10 1 1 435 2 1 0 0 184 f07.gif 0 X
10 1 1 436 2 2 2 1 299 d06.gif 0 X
10 1 1 437 2 2 2 1 591 d02.gif 0 X
10 1 1 438 2 2 1 0 192 e06.gif 0 X
10 1 1 439 2 1 2 0 683 d07.gif 0 X
10 1 1 440 2 0 2 0 224 d06.gif 0 X
10 1 1 441 2 1 2 0 576 d02.gif 0 X
10 1 1 442 2 2 0 0 305 f07.gif 0 X
10 1 1 443 2 0 1 0 282 e06.gif 0 X
10 1 1 444 2 1 2 0 1555 d04.gif 0 X
10 1 1 445 2 2 1 0 280 e07.gif 0 X
10 1 1 446 2 0 2 0 320 d05.gif 0 X
10 1 1 447 2 1 0 0 8 f04.gif 0 X
10 1 1 448 2 1 1 1 285 e04.gif 0 X
10 1 1 449 2 1 0 0 120 f03.gif 0 X
10 1 1 450 2 2 2 1 208 d06.gif 0 X
10 1 1 451 2 2 1 0 58 e01.gif 0 X
10 1 1 452 2 1 0 0 10 f01.gif 0 X
10 1 1 453 2 0 2 0 202 d08.gif 0 X
10 1 1 454 2 2 1 0 79 e07.gif 0 X
10 1 1 455 2 1 0 0 383 f07.gif 0 X
10 1 1 456 2 0 1 0 454 e04.gif 0 X
10 1 1 457 2 2 0 0 104 f06.gif 0 X
10 1 1 458 2 0 1 0 177 e01.gif 0 X
10 1 1 459 2 1 0 0 215 f01.gif 0 X
10 1 1 460 2 2 0 0 208 f03.gif 0 X
10 1 1 461 2 1 0 0 440 f08.gif 0 X
10 1 1 462 2 0 2 0 226 d07.gif 0 X
10 1 1 463 2 2 0 0 3464 f03.gif 0 X
10 1 1 464 2 2 1 0 527 e02.gif 0 X
10 1 1 465 2 2 2 1 215 d04.gif 0 X
10 1 1 466 2 1 1 1 881 e08.gif 0 X
10 1 1 467 2 0 1 0 88 e04.gif 0 X
10 1 1 468 2 2 2 1 399 d01.gif 0 X
10 1 1 469 2 2 0 0 385 f05.gif 0 X
10 1 1 470 2 2 0 0 263 f02.gif 0 X
10 1 1 471 2 2 1 0 282 e04.gif 0 X
10 1 1 472 2 0 0 1 344 f06.gif 0 X
10 1 1 473 2 1 2 0 801 d07.gif 0 X
10 1 1 474 2 2 1 0 801 e07.gif 0 X
10 1 1 475 2 2 2 1 384 d03.gif 0 X
10 1 1 476 2 1 1 1 280 e06.gif 0 X
10 1 1 477 2 1 0 0 401 f04.gif 0 X
10 1 1 478 2 0 1 0 216 e08.gif 0 X
10 1 1 479 2 0 1 0 264 e05.gif 0 X
10 1 1 480 3 2 1 0 296 e05.gif 0 X
10 1 1 481 3 1 1 1 31 e02.gif 0 X
10 1 1 482 3 1 1 1 256 e08.gif 0 X
10 1 1 483 3 2 2 1 223 d06.gif 0 X
10 1 1 484 3 1 1 1 73 e08.gif 0 X
10 1 1 485 3 2 1 0 185 e05.gif 0 X
10 1 1 486 3 1 2 0 32 d02.gif 0 X
10 1 1 487 3 2 2 1 264 d08.gif 0 X
10 1 1 488 3 2 0 0 201 f05.gif 0 X
10 1 1 489 3 0 1 0 40 e03.gif 0 X
10 1 1 490 3 2 1 0 1256 e03.gif 0 X
10 1 1 491 3 1 0 0 479 f08.gif 0 X
10 1 1 492 3 2 1 0 328 e02.gif 0 X
10 1 1 493 3 0 2 0 391 d03.gif 0 X
10 1 1 494 3 1 2 0 152 d05.gif 0 X
10 1 1 495 3 2 0 0 407 f07.gif 0 X
10 1 1 496 3 0 2 0 95 d03.gif 0 X
10 1 1 497 3 1 0 0 120 f04.gif 0 X
10 1 1 498 3 2 2 1 36 d01.gif 0 X
10 1 1 499 3 0 0 1 459 f08.gif 0 X
10 1 1 500 3 1 1 1 104 e01.gif 0 X
10 1 1 501 3 2 0 0 224 f01.gif 0 X
10 1 1 502 3 0 1 0 423 e01.gif 0 X
10 1 1 503 3 1 1 1 512 e02.gif 0 X
10 1 1 504 3 2 2 1 312 d08.gif 0 X
10 1 1 505 3 0 0 1 391 f02.gif 0 X
10 1 1 506 3 2 1 0 258 e03.gif 0 X
10 1 1 507 3 1 0 0 599 f07.gif 0 X
10 1 1 508 3 1 2 0 280 d06.gif 0 X
10 1 1 509 3 0 2 0 224 d02.gif 0 X
10 1 1 510 3 2 1 0 216 e06.gif 0 X
10 1 1 511 3 1 2 0 415 d07.gif 0 X
10 1 1 512 3 0 2 0 208 d06.gif 0 X
10 1 1 513 3 2 2 1 90 d02.gif 0 X
10 1 1 514 3 2 0 0 296 f07.gif 0 X
10 1 1 515 3 1 1 1 184 e06.gif 0 X
10 1 1 516 3 0 2 0 152 d04.gif 0 X
10 1 1 517 3 2 1 0 671 e07.gif 0 X
10 1 1 518 3 1 2 0 306 d05.gif 0 X
10 1 1 519 3 2 0 0 111 f04.gif 0 X
10 1 1 520 3 1 1 1 537 e04.gif 0 X
10 1 1 521 3 1 0 0 233 f03.gif 0 X
10 1 1 522 3 0 2 0 360 d06.gif 0 X
10 1 1 523 3 2 1 0 33 e01.gif 0 X
10 1 1 524 3 0 0 1 273 f01.gif 0 X
10 1 1 525 3 0 2 0 135 d08.gif 0 X
10 1 1 526 3 1 1 1 111 e07.gif 0 X
10 1 1 527 3 1 0 0 288 f07.gif 0 X
10 1 1 528 3 2 1 0 256 e04.gif 0 X
10 1 1 529 3 0 0 1 80 f06.gif 0 X
10 1 1 530 3 0 1 0 17 e01.gif 0 X
10 1 1 531 3 1 0 0 225 f01.gif 0 X
10 1 1 532 3 2 0 0 176 f03.gif 0 X
10 1 1 533 3 0 0 1 842 f08.gif 0 X
10 1 1 534 3 1 2 0 427 d07.gif 0 X
10 1 1 535 3 2 0 0 1235 f03.gif 0 X
10 1 1 536 3 2 1 0 104 e02.gif 0 X
10 1 1 537 3 0 2 0 273 d04.gif 0 X
10 1 1 538 3 1 1 1 288 e08.gif 0 X
10 1 1 539 3 2 1 0 498 e04.gif 0 X
10 1 1 540 3 2 2 1 112 d01.gif 0 X
10 1 1 541 3 0 0 1 321 f05.gif 0 X
10 1 1 542 3 1 0 0 329 f02.gif 0 X
10 1 1 543 3 2 1 0 897 e04.gif 0 X
10 1 1 544 3 0 0 1 55 f06.gif 0 X
10 1 1 545 3 0 2 0 295 d07.gif 0 X
10 1 1 546 3 1 1 1 211 e07.gif 0 X
10 1 1 547 3 1 2 0 250 d03.gif 0 X
10 1 1 548 3 1 1 1 1311 e06.gif 0 X
10 1 1 549 3 1 0 0 64 f04.gif 0 X
10 1 1 550 3 2 1 0 559 e08.gif 0 X
10 1 1 551 3 1 1 1 96 e05.gif 0 X
10 1 1 552 4 1 1 1 1686 e05.gif 0 X
10 1 1 553 4 2 1 0 2056 e02.gif 0 X
10 1 1 554 4 1 1 1 56 e08.gif 0 X
10 1 1 555 4 0 2 0 126 d06.gif 0 X
10 1 1 556 4 2 1 0 482 e08.gif 0 X
10 1 1 557 4 2 1 0 769 e05.gif 0 X
10 1 1 558 4 2 2 1 622 d02.gif 0 X
10 1 1 559 4 0 2 0 473 d08.gif 0 X
10 1 1 560 4 1 0 0 256 f05.gif 0 X
10 1 1 561 4 0 1 0 449 e03.gif 0 X
10 1 1 562 4 1 1 1 729 e03.gif 0 X
10 1 1 563 4 1 0 0 97 f08.gif 0 X
10 1 1 564 4 1 1 1 391 e02.gif 0 X
10 1 1 565 4 1 2 0 202 d03.gif 0 X
10 1 1 566 4 2 2 1 1918 d05.gif 0 X
10 1 1 567 4 2 0 0 355 f07.gif 0 X
10 1 1 568 4 2 2 1 145 d03.gif 0 X
10 1 1 569 4 2 0 0 352 f04.gif 0 X
10 1 1 570 4 2 2 1 575 d01.gif 0 X
10 1 1 571 4 2 0 0 145 f08.gif 0 X
10 1 1 572 4 0 1 0 398 e01.gif 0 X
10 1 1 573 4 1 0 0 310 f01.gif 0 X
10 1 1 574 4 0 1 0 304 e01.gif 0 X
10 1 1 575 4 1 1 1 233 e02.gif 0 X
10 1 1 576 4 1 2 0 171 d08.gif 0 X
10 1 1 577 4 2 0 0 290 f02.gif 0 X
10 1 1 578 4 0 1 0 242 e03.gif 0 X
10 1 1 579 4 2 0 0 250 f07.gif 0 X
10 1 1 580 4 1 2 0 184 d06.gif 0 X
10 1 1 581 4 2 2 1 200 d02.gif 0 X
10 1 1 582 4 0 1 0 58 e06.gif 0 X
10 1 1 583 4 1 2 0 99 d07.gif 0 X
10 1 1 584 4 2 2 1 259 d06.gif 0 X
10 1 1 585 4 2 2 1 232 d02.gif 0 X
10 1 1 586 4 2 0 0 192 f07.gif 0 X
10 1 1 587 4 1 1 1 64 e06.gif 0 X
10 1 1 588 4 2 2 1 215 d04.gif 0 X
10 1 1 589 4 2 1 0 176 e07.gif 0 X
10 1 1 590 4 2 2 1 1048 d05.gif 0 X
10 1 1 591 4 2 0 0 577 f04.gif 0 X
10 1 1 592 4 1 1 1 111 e04.gif 0 X
10 1 1 593 4 2 0 0 481 f03.gif 0 X
10 1 1 594 4 2 2 1 673 d06.gif 0 X
10 1 1 595 4 2 1 0 113 e01.gif 0 X
10 1 1 596 4 2 0 0 258 f01.gif 0 X
10 1 1 597 4 0 2 0 329 d08.gif 0 X
10 1 1 598 4 1 1 1 880 e07.gif 0 X
10 1 1 599 4 0 0 1 218 f07.gif 0 X
10 1 1 600 4 2 1 0 324 e04.gif 0 X
10 1 1 601 4 0 0 1 297 f06.gif 0 X
10 1 1 602 4 1 1 1 145 e01.gif 0 X
10 1 1 603 4 1 0 0 393 f01.gif 0 X
10 1 1 604 4 2 0 0 234 f03.gif 0 X
10 1 1 605 4 0 0 1 324 f08.gif 0 X
10 1 1 606 4 1 2 0 520 d07.gif 0 X
10 1 1 607 4 2 0 0 147 f03.gif 0 X
10 1 1 608 4 0 1 0 56 e02.gif 0 X
10 1 1 609 4 1 2 0 12 d04.gif 0 X
10 1 1 610 4 2 1 0 143 e08.gif 0 X
10 1 1 611 4 1 1 1 327 e04.gif 0 X
10 1 1 612 4 1 2 0 354 d01.gif 0 X
10 1 1 613 4 1 0 0 26 f05.gif 0 X
10 1 1 614 4 1 0 0 442 f02.gif 0 X
10 1 1 615 4 0 1 0 271 e04.gif 0 X
10 1 1 616 4 2 0 0 331 f06.gif 0 X
10 1 1 617 4 0 2 0 304 d07.gif 0 X
10 1 1 618 4 1 1 1 136 e07.gif 0 X
10 1 1 619 4 2 2 1 128 d03.gif 0 X
10 1 1 620 4 1 1 1 312 e06.gif 0 X
10 1 1 621 4 0 0 1 176 f04.gif 0 X
10 1 1 622 4 2 1 0 3298 e08.gif 0 X
10 1 1 623 4 1 1 1 151 e05.gif 0 X
10 1 3 624 10 2 1 0 310 e05.gif 0 1
10 1 3 625 10 0 0 1 1846 f04.gif 0 1
10 1 3 626 10 1 0 0 2494 f10.gif 0 0
10 1 3 627 10 2 0 0 334 f09.gif 0 0
10 1 3 628 10 2 0 0 183 f08.gif 0 1
10 1 3 629 10 0 0 1 135 f14.gif 0 0
10 1 3 630 10 1 2 0 199 d07.gif 0 1
10 1 3 631 10 2 1 0 182 e08.gif 0 1
10 1 3 632 10 0 2 0 206 d11.gif 0 0
10 1 3 633 10 2 1 0 142 e02.gif 0 1
10 1 3 634 10 0 2 0 254 d02.gif 0 1
10 1 3 635 10 2 1 0 183 e13.gif 0 0
10 1 3 636 10 0 0 1 200 f06.gif 0 1
10 1 3 637 10 1 2 0 272 d09.gif 0 0
10 1 3 638 10 2 1 0 161 e01.gif 0 1
10 1 3 639 10 1 0 0 150 f01.gif 0 1
10 1 3 640 10 2 1 0 54 e10.gif 0 0
10 1 3 641 10 0 2 0 439 d04.gif 0 1
10 1 3 642 10 2 2 1 239 d08.gif 0 1
10 1 3 643 10 1 1 1 110 e06.gif 0 1
10 1 3 644 10 2 1 0 207 e04.gif 0 1
10 1 3 645 10 0 2 0 207 d05.gif 0 1
10 1 3 646 10 2 1 0 247 e15.gif 0 0
10 1 3 647 10 1 0 0 558 f13.gif 0 0
10 1 3 648 10 0 2 0 263 d10.gif 0 0
10 1 3 649 10 2 0 0 488 f12.gif 0 0
10 1 3 650 10 0 1 0 231 e03.gif 0 1
10 1 3 651 10 1 2 0 439 d14.gif 0 0
10 1 3 652 10 1 2 0 120 d06.gif 0 1
10 1 3 653 10 0 0 1 234 f05.gif 0 1
10 1 3 654 10 2 2 1 128 d12.gif 0 0
10 1 3 655 10 0 1 0 102 e07.gif 0 1
10 1 3 656 10 1 0 0 318 f02.gif 0 1
10 1 3 657 10 2 2 1 317 d13.gif 0 0
10 1 3 658 10 0 0 1 184 f03.gif 0 1
10 1 3 659 10 2 1 0 301 e11.gif 0 0
10 1 3 660 10 2 0 0 134 f15.gif 0 0
10 1 3 661 10 0 1 0 311 e09.gif 0 0
10 1 3 662 10 1 0 0 597 f07.gif 0 1
10 1 3 663 10 2 2 1 535 d01.gif 0 1
10 1 3 664 10 1 0 0 182 f11.gif 0 0
10 1 3 665 10 0 2 0 407 d03.gif 0 1
10 1 3 666 10 0 2 0 344 d16.gif 0 0
10 1 3 667 10 1 1 1 654 e14.gif 0 0
10 1 3 668 10 2 2 1 159 d15.gif 0 0
10 1 3 669 10 1 0 0 118 f16.gif 0 0
10 1 3 670 10 0 1 0 239 e12.gif 0 0
10 1 3 671 10 1 1 1 14 e16.gif 0 0
11 0 1 0 1 0 0 1 3549 e06.gif 0 X 
11 0 1 1 1 0 1 0 1374 c02.gif 0 X 
11 0 1 2 1 1 0 0 1726 e07.gif 0 X 
11 0 1 3 1 0 2 0 1827 b06.gif 0 X 
11 0 1 4 1 0 0 1 4036 e01.gif 0 X 
11 0 1 5 1 0 1 0 652 c08.gif 0 X 
11 0 1 6 1 1 0 0 3068 e08.gif 0 X 
11 0 1 7 1 0 1 0 761 c06.gif 0 X 
11 0 1 8 1 0 0 1 733 e01.gif 0 X 
11 0 1 9 1 1 0 0 539 e05.gif 0 X 
11 0 1 10 1 1 1 1 1348 c01.gif 0 X 
11 0 1 11 1 1 1 1 4323 c07.gif 0 X 
11 0 1 12 1 0 2 0 1290 b06.gif 0 X 
11 0 1 13 1 0 0 1 4252 e05.gif 0 X 
11 0 1 14 1 0 1 0 317 c03.gif 0 X 
11 0 1 15 1 0 0 1 2291 e02.gif 0 X 
11 0 1 16 1 0 2 0 2990 b07.gif 0 X 
11 0 1 17 1 2 0 0 637 e04.gif 0 X 
11 0 1 18 1 2 2 1 715 b08.gif 0 X 
11 0 1 19 1 2 0 0 348 e08.gif 0 X 
11 0 1 20 1 2 1 0 387 c07.gif 0 X 
11 0 1 21 1 1 1 1 1316 c06.gif 0 X 
11 0 1 22 1 1 2 0 643 b05.gif 0 X 
11 0 1 23 1 1 1 1 2461 c08.gif 0 X 
11 0 1 24 1 0 1 0 611 c05.gif 0 X 
11 0 1 25 1 0 0 1 1501 e04.gif 0 X 
11 0 1 26 1 2 1 0 2180 c02.gif 0 X 
11 0 1 27 1 2 2 1 485 b06.gif 0 X 
11 0 1 28 1 1 2 0 1660 b01.gif 0 X 
11 0 1 29 1 1 0 0 794 e06.gif 0 X 
11 0 1 30 1 0 2 0 1066 b07.gif 0 X 
11 0 1 31 1 2 2 1 762 b03.gif 0 X 
11 0 1 32 1 1 0 0 3364 e04.gif 0 X 
11 0 1 33 1 0 2 0 1010 b07.gif 0 X 
11 0 1 34 1 0 0 1 1906 e04.gif 0 X 
11 0 1 35 1 1 2 0 3541 b08.gif 0 X 
11 0 1 36 1 1 0 0 804 e08.gif 0 X 
11 0 1 37 1 1 2 0 2316 b01.gif 0 X 
11 0 1 38 1 0 1 0 397 c01.gif 0 X 
11 0 1 39 1 0 1 0 683 c01.gif 0 X 
11 0 1 40 1 1 2 0 829 b04.gif 0 X 
11 0 1 41 1 2 0 0 938 e01.gif 0 X 
11 0 1 42 1 0 0 1 538 e03.gif 0 X 
11 0 1 43 1 1 0 0 2953 e03.gif 0 X 
11 0 1 44 1 0 2 0 634 b05.gif 0 X 
11 0 1 45 1 2 2 1 858 b01.gif 0 X 
11 0 1 46 1 1 1 1 1156 c04.gif 0 X 
11 0 1 47 1 0 2 0 1069 b08.gif 0 X 
11 0 1 48 1 0 1 0 580 c08.gif 0 X 
11 0 1 49 1 0 2 0 330 b02.gif 0 X 
11 0 1 50 1 2 0 0 964 e03.gif 0 X 
11 0 1 51 1 1 2 0 571 b08.gif 0 X 
11 0 1 52 1 0 2 0 437 b04.gif 0 X 
11 0 1 53 1 0 1 0 1124 c04.gif 0 X 
11 0 1 54 1 0 2 0 2525 b06.gif 0 X 
11 0 1 55 1 2 1 0 840 c02.gif 0 X 
11 0 1 56 1 0 0 1 580 e02.gif 0 X 
11 0 1 57 1 1 2 0 1206 b05.gif 0 X 
11 0 1 58 1 0 0 1 603 e03.gif 0 X 
11 0 1 59 1 1 1 1 723 c06.gif 0 X 
11 0 1 60 1 1 1 1 335 c08.gif 0 X 
11 0 1 61 1 0 1 0 373 c03.gif 0 X 
11 0 1 62 1 2 2 1 410 b01.gif 0 X 
11 0 1 63 1 1 0 0 1026 e02.gif 0 X 
11 0 1 64 1 1 1 1 512 c01.gif 0 X 
11 0 1 65 1 0 1 0 747 c03.gif 0 X 
11 0 1 66 1 1 0 0 722 e01.gif 0 X 
11 0 1 67 1 2 2 1 333 b03.gif 0 X 
11 0 1 68 1 0 1 0 3532 c02.gif 0 X 
11 0 1 69 1 0 1 0 2274 c04.gif 0 X 
11 0 1 70 1 1 2 0 1195 b03.gif 0 X 
11 0 1 71 1 2 1 0 706 c04.gif 0 X 
11 0 1 72 2 0 0 1 1754 e06.gif 0 X 
11 0 1 73 2 0 1 0 723 c02.gif 0 X 
11 0 1 74 2 1 0 0 1715 e07.gif 0 X 
11 0 1 75 2 0 2 0 2377 b06.gif 0 X 
11 0 1 76 2 1 0 0 796 e01.gif 0 X 
11 0 1 77 2 1 1 1 289 c08.gif 0 X 
11 0 1 78 2 0 0 1 133 e08.gif 0 X 
11 0 1 79 2 1 1 1 1388 c06.gif 0 X 
11 0 1 80 2 2 0 0 1884 e01.gif 0 X 
11 0 1 81 2 0 0 1 1332 e05.gif 0 X 
11 0 1 82 2 1 1 1 307 c01.gif 0 X 
11 0 1 83 2 1 1 1 901 c07.gif 0 X 
11 0 1 84 2 1 2 0 236 b06.gif 0 X 
11 0 1 85 2 2 0 0 1052 e05.gif 0 X 
11 0 1 86 2 0 1 0 892 c03.gif 0 X 
11 0 1 87 2 1 0 0 358 e02.gif 0 X 
11 0 1 88 2 0 2 0 772 b07.gif 0 X 
11 0 1 89 2 0 0 1 461 e04.gif 0 X 
11 0 1 90 2 1 2 0 226 b08.gif 0 X 
11 0 1 91 2 0 0 1 356 e08.gif 0 X 
11 0 1 92 2 1 1 1 820 c07.gif 0 X 
11 0 1 93 2 1 1 1 319 c06.gif 0 X 
11 0 1 94 2 1 2 0 396 b05.gif 0 X 
11 0 1 95 2 1 1 1 392 c08.gif 0 X 
11 0 1 96 2 2 1 0 668 c05.gif 0 X 
11 0 1 97 2 0 0 1 377 e04.gif 0 X 
11 0 1 98 2 0 1 0 540 c02.gif 0 X 
11 0 1 99 2 1 2 0 314 b06.gif 0 X 
11 0 1 100 2 1 2 0 826 b01.gif 0 X 
11 0 1 101 2 0 0 1 457 e06.gif 0 X 
11 0 1 102 2 1 2 0 1083 b07.gif 0 X 
11 0 1 103 2 1 2 0 763 b03.gif 0 X 
11 0 1 104 2 0 0 1 226 e04.gif 0 X 
11 0 1 105 2 0 2 0 670 b07.gif 0 X 
11 0 1 106 2 0 0 1 321 e04.gif 0 X 
11 0 1 107 2 1 2 0 717 b08.gif 0 X 
11 0 1 108 2 0 0 1 115 e08.gif 0 X 
11 0 1 109 2 2 2 1 410 b01.gif 0 X 
11 0 1 110 2 1 1 1 2009 c01.gif 0 X 
11 0 1 111 2 2 1 0 661 c01.gif 0 X 
11 0 1 112 2 2 2 1 1107 b04.gif 0 X 
11 0 1 113 2 0 0 1 285 e01.gif 0 X 
11 0 1 114 2 0 0 1 275 e03.gif 0 X 
11 0 1 115 2 0 0 1 283 e03.gif 0 X 
11 0 1 116 2 1 2 0 476 b05.gif 0 X 
11 0 1 117 2 2 2 1 563 b01.gif 0 X 
11 0 1 118 2 2 1 0 644 c04.gif 0 X 
11 0 1 119 2 2 2 1 406 b08.gif 0 X 
11 0 1 120 2 1 1 1 452 c08.gif 0 X 
11 0 1 121 2 2 2 1 395 b02.gif 0 X 
11 0 1 122 2 0 0 1 227 e03.gif 0 X 
11 0 1 123 2 1 2 0 988 b08.gif 0 X 
11 0 1 124 2 1 2 0 540 b04.gif 0 X 
11 0 1 125 2 1 1 1 555 c04.gif 0 X 
11 0 1 126 2 2 2 1 491 b06.gif 0 X 
11 0 1 127 2 1 1 1 420 c02.gif 0 X 
11 0 1 128 2 0 0 1 196 e02.gif 0 X 
11 0 1 129 2 2 2 1 1813 b05.gif 0 X 
11 0 1 130 2 2 0 0 715 e03.gif 0 X 
11 0 1 131 2 2 1 0 1523 c06.gif 0 X 
11 0 1 132 2 1 1 1 860 c08.gif 0 X 
11 0 1 133 2 1 1 1 780 c03.gif 0 X 
11 0 1 134 2 2 2 1 340 b01.gif 0 X 
11 0 1 135 2 0 0 1 283 e02.gif 0 X 
11 0 1 136 2 1 1 1 675 c01.gif 0 X 
11 0 1 137 2 1 1 1 363 c03.gif 0 X 
11 0 1 138 2 0 0 1 205 e01.gif 0 X 
11 0 1 139 2 2 2 1 571 b03.gif 0 X 
11 0 1 140 2 1 1 1 339 c02.gif 0 X 
11 0 1 141 2 1 1 1 748 c04.gif 0 X 
11 0 1 142 2 2 2 1 659 b03.gif 0 X 
11 0 1 143 2 1 1 1 404 c04.gif 0 X 
11 0 1 144 3 0 0 1 1241 e06.gif 0 X 
11 0 1 145 3 1 1 1 444 c02.gif 0 X 
11 0 1 146 3 0 0 1 114 e07.gif 0 X 
11 0 1 147 3 2 2 1 499 b06.gif 0 X 
11 0 1 148 3 0 0 1 588 e01.gif 0 X 
11 0 1 149 3 1 1 1 666 c08.gif 0 X 
11 0 1 150 3 0 0 1 229 e08.gif 0 X 
11 0 1 151 3 1 1 1 307 c06.gif 0 X 
11 0 1 152 3 0 0 1 514 e01.gif 0 X 
11 0 1 153 3 0 0 1 693 e05.gif 0 X 
11 0 1 154 3 1 1 1 416 c01.gif 0 X 
11 0 1 155 3 1 1 1 348 c07.gif 0 X 
11 0 1 156 3 2 2 1 323 b06.gif 0 X 
11 0 1 157 3 0 0 1 811 e05.gif 0 X 
11 0 1 158 3 1 1 1 283 c03.gif 0 X 
11 0 1 159 3 0 0 1 475 e02.gif 0 X 
11 0 1 160 3 2 2 1 490 b07.gif 0 X 
11 0 1 161 3 0 0 1 322 e04.gif 0 X 
11 0 1 162 3 2 2 1 768 b08.gif 0 X 
11 0 1 163 3 0 0 1 887 e08.gif 0 X 
11 0 1 164 3 1 1 1 275 c07.gif 0 X 
11 0 1 165 3 1 1 1 283 c06.gif 0 X 
11 0 1 166 3 2 2 1 643 b05.gif 0 X 
11 0 1 167 3 1 1 1 258 c08.gif 0 X 
11 0 1 168 3 1 1 1 420 c05.gif 0 X 
11 0 1 169 3 0 0 1 379 e04.gif 0 X 
11 0 1 170 3 1 1 1 715 c02.gif 0 X 
11 0 1 171 3 0 2 0 636 b06.gif 0 X 
11 0 1 172 3 2 2 1 354 b01.gif 0 X 
11 0 1 173 3 0 0 1 244 e06.gif 0 X 
11 0 1 174 3 2 2 1 268 b07.gif 0 X 
11 0 1 175 3 1 2 0 259 b03.gif 0 X 
11 0 1 176 3 0 0 1 451 e04.gif 0 X 
11 0 1 177 3 0 2 0 4404 b07.gif 0 X 
11 0 1 178 3 0 0 1 211 e04.gif 0 X 
11 0 1 179 3 1 2 0 1771 b08.gif 0 X 
11 0 1 180 3 0 0 1 382 e08.gif 0 X 
11 0 1 181 3 2 2 1 706 b01.gif 0 X 
11 0 1 182 3 1 1 1 317 c01.gif 0 X 
11 0 1 183 3 1 1 1 276 c01.gif 0 X 
11 0 1 184 3 2 2 1 2006 b04.gif 0 X 
11 0 1 185 3 0 0 1 765 e01.gif 0 X 
11 0 1 186 3 0 0 1 235 e03.gif 0 X 
11 0 1 187 3 0 0 1 259 e03.gif 0 X 
11 0 1 188 3 2 2 1 1307 b05.gif 0 X 
11 0 1 189 3 1 2 0 1075 b01.gif 0 X 
11 0 1 190 3 1 1 1 235 c04.gif 0 X 
11 0 1 191 3 2 2 1 675 b08.gif 0 X 
11 0 1 192 3 1 1 1 1251 c08.gif 0 X 
11 0 1 193 3 2 2 1 371 b02.gif 0 X 
11 0 1 194 3 0 0 1 452 e03.gif 0 X 
11 0 1 195 3 2 2 1 1219 b08.gif 0 X 
11 0 1 196 3 1 2 0 405 b04.gif 0 X 
11 0 1 197 3 1 1 1 211 c04.gif 0 X 
11 0 1 198 3 2 2 1 219 b06.gif 0 X 
11 0 1 199 3 1 1 1 147 c02.gif 0 X 
11 0 1 200 3 0 0 1 597 e02.gif 0 X 
11 0 1 201 3 2 2 1 714 b05.gif 0 X 
11 0 1 202 3 0 0 1 500 e03.gif 0 X 
11 0 1 203 3 1 1 1 195 c06.gif 0 X 
11 0 1 204 3 1 1 1 580 c08.gif 0 X 
11 0 1 205 3 1 1 1 357 c03.gif 0 X 
11 0 1 206 3 2 2 1 108 b01.gif 0 X 
11 0 1 207 3 0 0 1 413 e02.gif 0 X 
11 0 1 208 3 1 1 1 323 c01.gif 0 X 
11 0 1 209 3 1 1 1 419 c03.gif 0 X 
11 0 1 210 3 0 0 1 5 e01.gif 0 X 
11 0 1 211 3 2 2 1 160 b03.gif 0 X 
11 0 1 212 3 1 1 1 27 c02.gif 0 X 
11 0 1 213 3 1 1 1 27 c04.gif 0 X 
11 0 1 214 3 2 2 1 333 b03.gif 0 X 
11 0 1 215 3 1 1 1 77 c04.gif 0 X 
11 0 1 216 4 0 0 1 622 e06.gif 0 X 
11 0 1 217 4 1 1 1 302 c02.gif 0 X 
11 0 1 218 4 2 0 0 307 e07.gif 0 X 
11 0 1 219 4 2 2 1 939 b06.gif 0 X 
11 0 1 220 4 0 0 1 884 e01.gif 0 X 
11 0 1 221 4 1 1 1 140 c08.gif 0 X 
11 0 1 222 4 0 0 1 363 e08.gif 0 X 
11 0 1 223 4 1 1 1 244 c06.gif 0 X 
11 0 1 224 4 0 0 1 189 e01.gif 0 X 
11 0 1 225 4 0 0 1 83 e05.gif 0 X 
11 0 1 226 4 1 1 1 849 c01.gif 0 X 
11 0 1 227 4 1 1 1 204 c07.gif 0 X 
11 0 1 228 4 2 2 1 937 b06.gif 0 X 
11 0 1 229 4 0 0 1 539 e05.gif 0 X 
11 0 1 230 4 1 1 1 418 c03.gif 0 X 
11 0 1 231 4 0 0 1 293 e02.gif 0 X 
11 0 1 232 4 2 2 1 422 b07.gif 0 X 
11 0 1 233 4 0 0 1 378 e04.gif 0 X 
11 0 1 234 4 2 2 1 658 b08.gif 0 X 
11 0 1 235 4 0 0 1 331 e08.gif 0 X 
11 0 1 236 4 1 1 1 190 c07.gif 0 X 
11 0 1 237 4 1 1 1 227 c06.gif 0 X 
11 0 1 238 4 2 2 1 323 b05.gif 0 X 
11 0 1 239 4 1 1 1 465 c08.gif 0 X 
11 0 1 240 4 1 1 1 212 c05.gif 0 X 
11 0 1 241 4 0 0 1 253 e04.gif 0 X 
11 0 1 242 4 1 1 1 322 c02.gif 0 X 
11 0 1 243 4 2 2 1 437 b06.gif 0 X 
11 0 1 244 4 2 2 1 2195 b01.gif 0 X 
11 0 1 245 4 0 0 1 179 e06.gif 0 X 
11 0 1 246 4 2 2 1 402 b07.gif 0 X 
11 0 1 247 4 2 2 1 660 b03.gif 0 X 
11 0 1 248 4 0 0 1 394 e04.gif 0 X 
11 0 1 249 4 2 2 1 221 b07.gif 0 X 
11 0 1 250 4 0 0 1 523 e04.gif 0 X 
11 0 1 251 4 2 2 1 579 b08.gif 0 X 
11 0 1 252 4 0 0 1 301 e08.gif 0 X 
11 0 1 253 4 2 2 1 883 b01.gif 0 X 
11 0 1 254 4 1 1 1 307 c01.gif 0 X 
11 0 1 255 4 1 1 1 380 c01.gif 0 X 
11 0 1 256 4 2 2 1 412 b04.gif 0 X 
11 0 1 257 4 0 0 1 12 e01.gif 0 X 
11 0 1 258 4 0 0 1 305 e03.gif 0 X 
11 0 1 259 4 0 0 1 644 e03.gif 0 X 
11 0 1 260 4 2 2 1 237 b05.gif 0 X 
11 0 1 261 4 2 2 1 293 b01.gif 0 X 
11 0 1 262 4 1 1 1 180 c04.gif 0 X 
11 0 1 263 4 2 2 1 621 b08.gif 0 X 
11 0 1 264 4 2 1 0 476 c08.gif 0 X 
11 0 1 265 4 2 2 1 235 b02.gif 0 X 
11 0 1 266 4 0 0 1 119 e03.gif 0 X 
11 0 1 267 4 2 2 1 1004 b08.gif 0 X 
11 0 1 268 4 2 2 1 324 b04.gif 0 X 
11 0 1 269 4 1 1 1 106 c04.gif 0 X 
11 0 1 270 4 2 2 1 266 b06.gif 0 X 
11 0 1 271 4 1 1 1 220 c02.gif 0 X 
11 0 1 272 4 0 0 1 163 e02.gif 0 X 
11 0 1 273 4 2 2 1 204 b05.gif 0 X 
11 0 1 274 4 0 0 1 4 e03.gif 0 X 
11 0 1 275 4 1 1 1 951 c06.gif 0 X 
11 0 1 276 4 1 1 1 261 c08.gif 0 X 
11 0 1 277 4 1 1 1 282 c03.gif 0 X 
11 0 1 278 4 2 2 1 678 b01.gif 0 X 
11 0 1 279 4 0 0 1 204 e02.gif 0 X 
11 0 1 280 4 1 1 1 180 c01.gif 0 X 
11 0 1 281 4 1 1 1 574 c03.gif 0 X 
11 0 1 282 4 0 0 1 532 e01.gif 0 X 
11 0 1 283 4 2 2 1 518 b03.gif 0 X 
11 0 1 284 4 1 1 1 243 c02.gif 0 X 
11 0 1 285 4 1 1 1 469 c04.gif 0 X 
11 0 1 286 4 2 2 1 219 b03.gif 0 X 
11 0 1 287 4 1 1 1 206 c04.gif 0 X 
11 0 3 288 5 0 0 1 1540 e08.gif 0 1
11 0 3 289 5 0 1 0 3325 c12.gif 0 0
11 0 3 290 5 0 1 0 2675 c10.gif 0 0
11 0 3 291 5 0 0 1 941 e06.gif 0 1
11 0 3 292 5 1 1 1 444 c16.gif 0 0
11 0 3 293 5 2 2 1 276 b05.gif 0 1
11 0 3 294 5 2 2 1 1195 b10.gif 0 0
11 0 3 295 5 2 2 1 627 b09.gif 0 0
11 0 3 296 5 0 0 1 315 e15.gif 0 0
11 0 3 297 5 2 2 1 379 b04.gif 0 1
11 0 3 298 5 2 2 1 621 b01.gif 0 1
11 0 3 299 5 2 2 1 411 b11.gif 0 0
11 0 3 300 5 2 2 1 394 b06.gif 0 1
11 0 3 301 5 1 1 1 373 c04.gif 0 1
11 0 3 302 5 0 0 1 283 e01.gif 0 1
11 0 3 303 5 2 2 1 316 b03.gif 0 1
11 0 3 304 5 2 2 1 615 b16.gif 0 0
11 0 3 305 5 0 0 1 284 e16.gif 0 0
11 0 3 306 5 0 0 1 276 e02.gif 0 1
11 0 3 307 5 0 0 1 309 e11.gif 0 0
11 0 3 308 5 2 2 1 468 b15.gif 0 0
11 0 3 309 5 1 1 1 331 c08.gif 0 1
11 0 3 310 5 2 2 1 389 b08.gif 0 1
11 0 3 311 5 0 0 1 285 e14.gif 0 0
11 0 3 312 5 1 1 1 419 c03.gif 0 1
11 0 3 313 5 1 1 1 332 c07.gif 0 1
11 0 3 314 5 0 0 1 444 e13.gif 0 0
11 0 3 315 5 1 1 1 332 c05.gif 0 1
11 0 3 316 5 1 1 1 421 c13.gif 0 0
11 0 3 317 5 2 2 1 1188 b14.gif 0 0
11 0 3 318 5 0 0 1 491 e07.gif 0 1
11 0 3 319 5 0 0 1 258 e09.gif 0 0
11 0 3 320 5 1 1 1 331 c15.gif 0 0
11 0 3 321 5 2 2 1 1045 b12.gif 0 0
11 0 3 322 5 0 0 1 363 e04.gif 0 1
11 0 3 323 5 1 1 1 340 c11.gif 0 0
11 0 3 324 5 1 2 0 397 b02.gif 0 1
11 0 3 325 5 1 1 1 307 c02.gif 0 1
11 0 3 326 5 0 0 1 303 e12.gif 0 0
11 0 3 327 5 1 1 1 284 c06.gif 0 1
11 0 3 328 5 1 1 1 290 c01.gif 0 1
11 0 3 329 5 1 1 1 234 c14.gif 0 0
11 0 3 330 5 0 0 1 453 e05.gif 0 1
11 0 3 331 5 2 2 1 220 b13.gif 0 0
11 0 3 332 5 0 0 1 227 e10.gif 0 0
11 0 3 333 5 0 2 0 2075 b07.gif 0 1
11 0 3 334 5 1 1 1 339 c09.gif 0 0
11 0 3 335 5 0 0 1 251 e03.gif 0 1
11 0 1 336 1 0 2 0 1893 f07.gif 1 X
11 0 1 337 1 2 2 1 802 f04.gif 1 X
11 0 1 338 1 2 2 1 459 f08.gif 1 X
11 0 1 339 1 1 2 0 900 f01.gif 1 X
11 0 1 340 1 0 0 1 1113 a04.gif 1 X
11 0 1 341 1 2 1 0 260 d08.gif 1 X
11 0 1 342 1 2 1 0 707 d02.gif 1 X
11 0 1 343 1 2 1 0 724 d04.gif 1 X
11 0 1 344 1 1 0 0 170 a02.gif 1 X
11 0 1 345 1 0 0 1 891 a02.gif 1 X
11 0 1 346 1 0 0 1 997 a04.gif 1 X
11 0 1 347 1 1 0 0 507 a05.gif 1 X
11 0 1 348 1 2 2 1 548 f01.gif 1 X
11 0 1 349 1 2 2 1 380 f02.gif 1 X
11 0 1 350 1 2 2 1 643 f03.gif 1 X
11 0 1 351 1 2 2 1 236 f04.gif 1 X
11 0 1 352 1 2 2 1 187 f05.gif 1 X
11 0 1 353 1 2 2 1 789 f03.gif 1 X
11 0 1 354 1 2 2 1 419 f01.gif 1 X
11 0 1 355 1 2 1 0 491 d03.gif 1 X
11 0 1 356 1 1 1 1 571 d05.gif 1 X
11 0 1 357 1 1 0 0 285 a06.gif 1 X
11 0 1 358 1 1 0 0 383 a01.gif 1 X
11 0 1 359 1 0 0 1 347 a01.gif 1 X
11 0 1 360 1 2 0 0 2021 a07.gif 1 X
11 0 1 361 1 0 0 1 68 a07.gif 1 X
11 0 1 362 1 1 0 0 436 a01.gif 1 X
11 0 1 363 1 0 0 1 418 a05.gif 1 X
11 0 1 364 1 1 0 0 764 a08.gif 1 X
11 0 1 365 1 1 0 0 604 a07.gif 1 X
11 0 1 366 1 0 1 0 556 d01.gif 1 X
11 0 1 367 1 1 2 0 474 f06.gif 1 X
11 0 1 368 1 2 1 0 683 d05.gif 1 X
11 0 1 369 1 1 1 1 281 d03.gif 1 X
11 0 1 370 1 0 1 0 366 d07.gif 1 X
11 0 1 371 1 1 2 0 354 f02.gif 1 X
11 0 1 372 1 2 2 1 706 f03.gif 1 X
11 0 1 373 1 1 2 0 819 f07.gif 1 X
11 0 1 374 1 2 0 0 33 a03.gif 1 X
11 0 1 375 1 0 1 0 242 d04.gif 1 X
11 0 1 376 1 1 1 1 753 d06.gif 1 X
11 0 1 377 1 1 1 1 819 d03.gif 1 X
11 0 1 378 1 2 1 0 341 d08.gif 1 X
11 0 1 379 1 1 1 1 545 d05.gif 1 X
11 0 1 380 1 1 1 1 260 d01.gif 1 X
11 0 1 381 1 1 1 1 293 d08.gif 1 X
11 0 1 382 1 1 1 1 235 d05.gif 1 X
11 0 1 383 1 1 1 1 242 d08.gif 1 X
11 0 1 384 1 1 1 1 243 d02.gif 1 X
11 0 1 385 1 1 1 1 332 d07.gif 1 X
11 0 1 386 1 1 1 1 266 d07.gif 1 X
11 0 1 387 1 1 1 1 323 d06.gif 1 X
11 0 1 388 1 1 2 0 1090 f08.gif 1 X
11 0 1 389 1 1 1 1 284 d04.gif 1 X
11 0 1 390 1 1 1 1 323 d02.gif 1 X
11 0 1 391 1 1 1 1 123 d01.gif 1 X
11 0 1 392 1 1 1 1 276 d04.gif 1 X
11 0 1 393 1 1 2 0 307 f06.gif 1 X
11 0 1 394 1 2 2 1 262 f07.gif 1 X
11 0 1 395 1 2 2 1 357 f04.gif 1 X
11 0 1 396 1 2 2 1 180 f03.gif 1 X
11 0 1 397 1 2 2 1 276 f05.gif 1 X
11 0 1 398 1 2 2 1 140 f08.gif 1 X
11 0 1 399 1 2 0 0 27 a08.gif 1 X
11 0 1 400 1 1 0 0 412 a04.gif 1 X
11 0 1 401 1 0 0 1 139 a03.gif 1 X
11 0 1 402 1 0 0 1 316 a05.gif 1 X
11 0 1 403 1 0 0 1 180 a02.gif 1 X
11 0 1 404 1 0 0 1 165 a05.gif 1 X
11 0 1 405 1 0 0 1 107 a01.gif 1 X
11 0 1 406 1 0 2 0 612 f02.gif 1 X
11 0 1 407 1 2 2 1 894 f02.gif 1 X
11 0 1 408 2 0 2 0 267 f07.gif 1 X
11 0 1 409 2 0 2 0 322 f04.gif 1 X
11 0 1 410 2 2 2 1 1155 f08.gif 1 X
11 0 1 411 2 2 2 1 235 f01.gif 1 X
11 0 1 412 2 2 0 0 22 a04.gif 1 X
11 0 1 413 2 1 1 1 343 d08.gif 1 X
11 0 1 414 2 1 1 1 210 d02.gif 1 X
11 0 1 415 2 1 1 1 139 d04.gif 1 X
11 0 1 416 2 2 0 0 1554 a02.gif 1 X
11 0 1 417 2 0 0 1 66 a02.gif 1 X
11 0 1 418 2 0 0 1 203 a04.gif 1 X
11 0 1 419 2 0 0 1 500 a05.gif 1 X
11 0 1 420 2 0 2 0 156 f01.gif 1 X
11 0 1 421 2 2 2 1 355 f02.gif 1 X
11 0 1 422 2 2 2 1 229 f03.gif 1 X
11 0 1 423 2 2 2 1 301 f04.gif 1 X
11 0 1 424 2 0 2 0 764 f05.gif 1 X
11 0 1 425 2 2 2 1 12 f03.gif 1 X
11 0 1 426 2 2 2 1 112 f01.gif 1 X
11 0 1 427 2 1 1 1 173 d03.gif 1 X
11 0 1 428 2 1 1 1 52 d05.gif 1 X
11 0 1 429 2 2 0 0 387 a06.gif 1 X
11 0 1 430 2 0 0 1 449 a01.gif 1 X
11 0 1 431 2 0 0 1 356 a01.gif 1 X
11 0 1 432 2 2 0 0 1061 a07.gif 1 X
11 0 1 433 2 0 0 1 579 a07.gif 1 X
11 0 1 434 2 1 0 0 419 a01.gif 1 X
11 0 1 435 2 1 0 0 403 a05.gif 1 X
11 0 1 436 2 0 0 1 260 a08.gif 1 X
11 0 1 437 2 0 0 1 163 a07.gif 1 X
11 0 1 438 2 1 1 1 147 d01.gif 1 X
11 0 1 439 2 2 2 1 315 f06.gif 1 X
11 0 1 440 2 1 1 1 507 d05.gif 1 X
11 0 1 441 2 1 1 1 363 d03.gif 1 X
11 0 1 442 2 1 1 1 276 d07.gif 1 X
11 0 1 443 2 2 2 1 571 f02.gif 1 X
11 0 1 444 2 1 2 0 572 f03.gif 1 X
11 0 1 445 2 0 2 0 349 f07.gif 1 X
11 0 1 446 2 2 0 0 475 a03.gif 1 X
11 0 1 447 2 1 1 1 258 d04.gif 1 X
11 0 1 448 2 1 1 1 235 d06.gif 1 X
11 0 1 449 2 1 1 1 234 d03.gif 1 X
11 0 1 450 2 1 1 1 194 d08.gif 1 X
11 0 1 451 2 1 1 1 100 d05.gif 1 X
11 0 1 452 2 1 1 1 442 d01.gif 1 X
11 0 1 453 2 1 1 1 420 d08.gif 1 X
11 0 1 454 2 1 1 1 133 d05.gif 1 X
11 0 1 455 2 1 1 1 434 d08.gif 1 X
11 0 1 456 2 1 1 1 83 d02.gif 1 X
11 0 1 457 2 1 1 1 263 d07.gif 1 X
11 0 1 458 2 1 1 1 123 d07.gif 1 X
11 0 1 459 2 1 1 1 139 d06.gif 1 X
11 0 1 460 2 2 2 1 236 f08.gif 1 X
11 0 1 461 2 1 1 1 230 d04.gif 1 X
11 0 1 462 2 1 1 1 254 d02.gif 1 X
11 0 1 463 2 1 1 1 117 d01.gif 1 X
11 0 1 464 2 1 1 1 219 d04.gif 1 X
11 0 1 465 2 2 2 1 180 f06.gif 1 X
11 0 1 466 2 2 2 1 157 f07.gif 1 X
11 0 1 467 2 2 2 1 258 f04.gif 1 X
11 0 1 468 2 2 2 1 247 f03.gif 1 X
11 0 1 469 2 2 2 1 252 f05.gif 1 X
11 0 1 470 2 2 2 1 357 f08.gif 1 X
11 0 1 471 2 2 0 0 314 a08.gif 1 X
11 0 1 472 2 0 0 1 307 a04.gif 1 X
11 0 1 473 2 0 0 1 658 a03.gif 1 X
11 0 1 474 2 0 0 1 653 a05.gif 1 X
11 0 1 475 2 0 0 1 275 a02.gif 1 X
11 0 1 476 2 0 0 1 276 a05.gif 1 X
11 0 1 477 2 0 0 1 243 a01.gif 1 X
11 0 1 478 2 0 2 0 196 f02.gif 1 X
11 0 1 479 2 2 2 1 106 f02.gif 1 X
11 0 1 480 3 0 2 0 244 f07.gif 1 X
11 0 1 481 3 2 2 1 337 f04.gif 1 X
11 0 1 482 3 2 2 1 1 f08.gif 1 X
11 0 1 483 3 2 2 1 233 f01.gif 1 X
11 0 1 484 3 0 0 1 955 a04.gif 1 X
11 0 1 485 3 1 1 1 204 d08.gif 1 X
11 0 1 486 3 1 1 1 406 d02.gif 1 X
11 0 1 487 3 1 1 1 196 d04.gif 1 X
11 0 1 488 3 0 0 1 716 a02.gif 1 X
11 0 1 489 3 0 0 1 404 a02.gif 1 X
11 0 1 490 3 0 0 1 277 a04.gif 1 X
11 0 1 491 3 0 0 1 172 a05.gif 1 X
11 0 1 492 3 0 2 0 99 f01.gif 1 X
11 0 1 493 3 1 2 0 495 f02.gif 1 X
11 0 1 494 3 0 2 0 363 f03.gif 1 X
11 0 1 495 3 1 2 0 147 f04.gif 1 X
11 0 1 496 3 1 2 0 250 f05.gif 1 X
11 0 1 497 3 1 2 0 165 f03.gif 1 X
11 0 1 498 3 2 2 1 3 f01.gif 1 X
11 0 1 499 3 1 1 1 377 d03.gif 1 X
11 0 1 500 3 1 1 1 396 d05.gif 1 X
11 0 1 501 3 1 0 0 204 a06.gif 1 X
11 0 1 502 3 1 0 0 273 a01.gif 1 X
11 0 1 503 3 1 0 0 185 a01.gif 1 X
11 0 1 504 3 0 0 1 194 a07.gif 1 X
11 0 1 505 3 0 0 1 52 a07.gif 1 X
11 0 1 506 3 2 0 0 572 a01.gif 1 X
11 0 1 507 3 0 0 1 154 a05.gif 1 X
11 0 1 508 3 0 0 1 243 a08.gif 1 X
11 0 1 509 3 0 0 1 218 a07.gif 1 X
11 0 1 510 3 1 1 1 243 d01.gif 1 X
11 0 1 511 3 0 2 0 219 f06.gif 1 X
11 0 1 512 3 1 1 1 98 d05.gif 1 X
11 0 1 513 3 1 1 1 138 d03.gif 1 X
11 0 1 514 3 1 1 1 171 d07.gif 1 X
11 0 1 515 3 0 2 0 811 f02.gif 1 X
11 0 1 516 3 0 2 0 465 f03.gif 1 X
11 0 1 517 3 2 2 1 436 f07.gif 1 X
11 0 1 518 3 2 0 0 353 a03.gif 1 X
11 0 1 519 3 1 1 1 571 d04.gif 1 X
11 0 1 520 3 1 1 1 196 d06.gif 1 X
11 0 1 521 3 1 1 1 275 d03.gif 1 X
11 0 1 522 3 1 1 1 179 d08.gif 1 X
11 0 1 523 3 1 1 1 85 d05.gif 1 X
11 0 1 524 3 1 1 1 52 d01.gif 1 X
11 0 1 525 3 1 1 1 28 d08.gif 1 X
11 0 1 526 3 1 1 1 84 d05.gif 1 X
11 0 1 527 3 1 1 1 828 d08.gif 1 X
11 0 1 528 3 1 1 1 260 d02.gif 1 X
11 0 1 529 3 1 1 1 282 d07.gif 1 X
11 0 1 530 3 1 1 1 107 d07.gif 1 X
11 0 1 531 3 1 1 1 236 d06.gif 1 X
11 0 1 532 3 0 2 0 282 f08.gif 1 X
11 0 1 533 3 1 1 1 178 d04.gif 1 X
11 0 1 534 3 1 1 1 132 d02.gif 1 X
11 0 1 535 3 1 1 1 379 d01.gif 1 X
11 0 1 536 3 1 1 1 609 d04.gif 1 X
11 0 1 537 3 0 2 0 259 f06.gif 1 X
11 0 1 538 3 2 2 1 58 f07.gif 1 X
11 0 1 539 3 2 2 1 829 f04.gif 1 X
11 0 1 540 3 2 2 1 42 f03.gif 1 X
11 0 1 541 3 2 2 1 60 f05.gif 1 X
11 0 1 542 3 2 2 1 373 f08.gif 1 X
11 0 1 543 3 2 0 0 307 a08.gif 1 X
11 0 1 544 3 0 0 1 475 a04.gif 1 X
11 0 1 545 3 0 0 1 27 a03.gif 1 X
11 0 1 546 3 0 0 1 187 a05.gif 1 X
11 0 1 547 3 0 0 1 250 a02.gif 1 X
11 0 1 548 3 0 0 1 266 a05.gif 1 X
11 0 1 549 3 0 0 1 412 a01.gif 1 X
11 0 1 550 3 0 2 0 357 f02.gif 1 X
11 0 1 551 3 1 2 0 281 f02.gif 1 X
11 0 1 552 4 2 2 1 371 f07.gif 1 X
11 0 1 553 4 2 2 1 349 f04.gif 1 X
11 0 1 554 4 2 2 1 260 f08.gif 1 X
11 0 1 555 4 2 2 1 291 f01.gif 1 X
11 0 1 556 4 2 0 0 124 a04.gif 1 X
11 0 1 557 4 1 1 1 228 d08.gif 1 X
11 0 1 558 4 1 1 1 283 d02.gif 1 X
11 0 1 559 4 1 1 1 235 d04.gif 1 X
11 0 1 560 4 2 0 0 306 a02.gif 1 X
11 0 1 561 4 0 0 1 202 a02.gif 1 X
11 0 1 562 4 0 0 1 283 a04.gif 1 X
11 0 1 563 4 0 0 1 267 a05.gif 1 X
11 0 1 564 4 1 2 0 114 f01.gif 1 X
11 0 1 565 4 0 2 0 203 f02.gif 1 X
11 0 1 566 4 2 2 1 76 f03.gif 1 X
11 0 1 567 4 2 2 1 180 f04.gif 1 X
11 0 1 568 4 2 2 1 82 f05.gif 1 X
11 0 1 569 4 2 2 1 291 f03.gif 1 X
11 0 1 570 4 1 2 0 618 f01.gif 1 X
11 0 1 571 4 1 1 1 314 d03.gif 1 X
11 0 1 572 4 1 1 1 291 d05.gif 1 X
11 0 1 573 4 0 0 1 506 a06.gif 1 X
11 0 1 574 4 0 0 1 635 a01.gif 1 X
11 0 1 575 4 0 0 1 290 a01.gif 1 X
11 0 1 576 4 2 0 0 341 a07.gif 1 X
11 0 1 577 4 0 0 1 362 a07.gif 1 X
11 0 1 578 4 0 0 1 461 a01.gif 1 X
11 0 1 579 4 0 0 1 276 a05.gif 1 X
11 0 1 580 4 0 0 1 107 a08.gif 1 X
11 0 1 581 4 0 0 1 204 a07.gif 1 X
11 0 1 582 4 1 1 1 43 d01.gif 1 X
11 0 1 583 4 0 2 0 325 f06.gif 1 X
11 0 1 584 4 1 1 1 179 d05.gif 1 X
11 0 1 585 4 1 1 1 405 d03.gif 1 X
11 0 1 586 4 1 1 1 109 d07.gif 1 X
11 0 1 587 4 2 2 1 270 f02.gif 1 X
11 0 1 588 4 2 2 1 222 f03.gif 1 X
11 0 1 589 4 2 2 1 117 f07.gif 1 X
11 0 1 590 4 2 0 0 143 a03.gif 1 X
11 0 1 591 4 1 1 1 101 d04.gif 1 X
11 0 1 592 4 1 1 1 165 d06.gif 1 X
11 0 1 593 4 1 1 1 252 d03.gif 1 X
11 0 1 594 4 1 1 1 100 d08.gif 1 X
11 0 1 595 4 1 1 1 123 d05.gif 1 X
11 0 1 596 4 1 1 1 254 d01.gif 1 X
11 0 1 597 4 1 1 1 482 d08.gif 1 X
11 0 1 598 4 1 1 1 204 d05.gif 1 X
11 0 1 599 4 1 1 1 357 d08.gif 1 X
11 0 1 600 4 1 1 1 399 d02.gif 1 X
11 0 1 601 4 1 1 1 170 d07.gif 1 X
11 0 1 602 4 1 1 1 811 d07.gif 1 X
11 0 1 603 4 1 1 1 108 d06.gif 1 X
11 0 1 604 4 0 2 0 844 f08.gif 1 X
11 0 1 605 4 1 1 1 19 d04.gif 1 X
11 0 1 606 4 1 1 1 624 d02.gif 1 X
11 0 1 607 4 1 1 1 155 d01.gif 1 X
11 0 1 608 4 1 1 1 259 d04.gif 1 X
11 0 1 609 4 2 2 1 275 f06.gif 1 X
11 0 1 610 4 0 2 0 451 f07.gif 1 X
11 0 1 611 4 2 2 1 100 f04.gif 1 X
11 0 1 612 4 2 2 1 163 f03.gif 1 X
11 0 1 613 4 2 2 1 277 f05.gif 1 X
11 0 1 614 4 2 2 1 260 f08.gif 1 X
11 0 1 615 4 2 0 0 26 a08.gif 1 X
11 0 1 616 4 0 0 1 450 a04.gif 1 X
11 0 1 617 4 0 0 1 45 a03.gif 1 X
11 0 1 618 4 0 0 1 333 a05.gif 1 X
11 0 1 619 4 0 0 1 316 a02.gif 1 X
11 0 1 620 4 0 0 1 245 a05.gif 1 X
11 0 1 621 4 0 0 1 468 a01.gif 1 X
11 0 1 622 4 0 2 0 260 f02.gif 1 X
11 0 1 623 4 2 2 1 235 f02.gif 1 X
11 0 3 624 10 1 1 1 602 d11.gif 1 0
11 0 3 625 10 1 1 1 259 d06.gif 1 1
11 0 3 626 10 1 1 1 250 d10.gif 1 0
11 0 3 627 10 0 2 0 533 f02.gif 1 1
11 0 3 628 10 2 0 0 434 a12.gif 1 0
11 0 3 629 10 2 2 1 404 f03.gif 1 1
11 0 3 630 10 1 1 1 237 d12.gif 1 0
11 0 3 631 10 2 0 0 117 a11.gif 1 0
11 0 3 632 10 1 2 0 211 f10.gif 1 0
11 0 3 633 10 1 1 1 234 d14.gif 1 0
11 0 3 634 10 2 2 1 181 f04.gif 1 1
11 0 3 635 10 2 2 1 252 f12.gif 1 0
11 0 3 636 10 1 1 1 244 d01.gif 1 1
11 0 3 637 10 2 2 1 267 f09.gif 1 0
11 0 3 638 10 2 0 0 499 a15.gif 1 0
11 0 3 639 10 1 1 1 245 d16.gif 1 0
11 0 3 640 10 1 1 1 267 d08.gif 1 1
11 0 3 641 10 2 0 0 195 a02.gif 1 1
11 0 3 642 10 2 2 1 211 f13.gif 1 0
11 0 3 643 10 2 0 0 139 a01.gif 1 1
11 0 3 644 10 2 0 0 203 a08.gif 1 1
11 0 3 645 10 2 0 0 194 a04.gif 1 1
11 0 3 646 10 1 1 1 162 d13.gif 1 0
11 0 3 647 10 2 0 0 75 a05.gif 1 1
11 0 3 648 10 2 2 1 451 f05.gif 1 1
11 0 3 649 10 2 0 0 251 a13.gif 1 0
11 0 3 650 10 1 1 1 217 d02.gif 1 1
11 0 3 651 10 2 2 1 50 f14.gif 1 0
11 0 3 652 10 2 0 0 196 a16.gif 1 0
11 0 3 653 10 1 1 1 475 d15.gif 1 0
11 0 3 654 10 2 2 1 123 f07.gif 1 1
11 0 3 655 10 2 0 0 91 a03.gif 1 1
11 0 3 656 10 1 1 1 235 d05.gif 1 1
11 0 3 657 10 2 0 0 290 a06.gif 1 1
11 0 3 658 10 1 1 1 249 d03.gif 1 1
11 0 3 659 10 2 2 1 202 f11.gif 1 0
11 0 3 660 10 1 1 1 170 d04.gif 1 1
11 0 3 661 10 2 2 1 172 f08.gif 1 1
11 0 3 662 10 1 1 1 137 d09.gif 1 0
11 0 3 663 10 2 2 1 242 f06.gif 1 1
11 0 3 664 10 2 2 1 289 f16.gif 1 0
11 0 3 665 10 2 2 1 233 f01.gif 1 1
11 0 3 666 10 2 0 0 200 a14.gif 1 0
11 0 3 667 10 1 0 0 273 a10.gif 1 0
11 0 3 668 10 2 0 0 202 a07.gif 1 1
11 0 3 669 10 2 2 1 122 f15.gif 1 0
11 0 3 670 10 2 0 0 91 a09.gif 1 0
11 0 3 671 10 1 1 1 186 d07.gif 1 1
12 1 1 0 1 1 2 0 3386 f02.gif 1 X 
12 1 1 1 1 2 2 1 563 f03.gif 1 X 
12 1 1 2 1 2 1 0 1068 b06.gif 1 X 
12 1 1 3 1 1 1 1 645 b08.gif 1 X 
12 1 1 4 1 0 1 0 726 b05.gif 1 X 
12 1 1 5 1 1 2 0 381 f01.gif 1 X 
12 1 1 6 1 1 0 0 524 a05.gif 1 X 
12 1 1 7 1 0 0 1 540 a08.gif 1 X 
12 1 1 8 1 0 0 1 547 a01.gif 1 X 
12 1 1 9 1 0 0 1 478 a02.gif 1 X 
12 1 1 10 1 0 2 0 461 f03.gif 1 X 
12 1 1 11 1 2 2 1 357 f05.gif 1 X 
12 1 1 12 1 2 0 0 518 a07.gif 1 X 
12 1 1 13 1 2 1 0 476 b08.gif 1 X 
12 1 1 14 1 1 1 1 430 b04.gif 1 X 
12 1 1 15 1 1 1 1 453 b01.gif 1 X 
12 1 1 16 1 2 1 0 677 b08.gif 1 X 
12 1 1 17 1 1 1 1 557 b05.gif 1 X 
12 1 1 18 1 1 2 0 534 f04.gif 1 X 
12 1 1 19 1 2 2 1 389 f01.gif 1 X 
12 1 1 20 1 2 2 1 301 f08.gif 1 X 
12 1 1 21 1 2 2 1 333 f06.gif 1 X 
12 1 1 22 1 0 2 0 374 f01.gif 1 X 
12 1 1 23 1 2 2 1 284 f03.gif 1 X 
12 1 1 24 1 2 0 0 285 a04.gif 1 X 
12 1 1 25 1 0 0 1 140 a07.gif 1 X 
12 1 1 26 1 0 0 1 285 a07.gif 1 X 
12 1 1 27 1 0 0 1 293 a01.gif 1 X 
12 1 1 28 1 1 0 0 325 a03.gif 1 X 
12 1 1 29 1 0 2 0 364 f02.gif 1 X 
12 1 1 30 1 2 0 0 245 a06.gif 1 X 
12 1 1 31 1 2 0 0 484 a08.gif 1 X 
12 1 1 32 1 2 1 0 435 b01.gif 1 X 
12 1 1 33 1 0 1 0 845 b06.gif 1 X 
12 1 1 34 1 1 1 1 804 b02.gif 1 X 
12 1 1 35 1 2 1 0 381 b03.gif 1 X 
12 1 1 36 1 1 1 1 339 b04.gif 1 X 
12 1 1 37 1 1 1 1 462 b07.gif 1 X 
12 1 1 38 1 1 2 0 486 f04.gif 1 X 
12 1 1 39 1 2 2 1 581 f06.gif 1 X 
12 1 1 40 1 2 2 1 372 f08.gif 1 X 
12 1 1 41 1 0 2 0 995 f07.gif 1 X 
12 1 1 42 1 2 1 0 316 b01.gif 1 X 
12 1 1 43 1 1 1 1 186 b07.gif 1 X 
12 1 1 44 1 0 1 0 356 b04.gif 1 X 
12 1 1 45 1 1 1 1 301 b06.gif 1 X 
12 1 1 46 1 1 1 1 60 b02.gif 1 X 
12 1 1 47 1 1 1 1 365 b07.gif 1 X 
12 1 1 48 1 2 1 0 385 b07.gif 1 X 
12 1 1 49 1 1 1 1 269 b05.gif 1 X 
12 1 1 50 1 1 1 1 213 b01.gif 1 X 
12 1 1 51 1 1 1 1 189 b03.gif 1 X 
12 1 1 52 1 1 0 0 229 a07.gif 1 X 
12 1 1 53 1 0 2 0 6 f07.gif 1 X 
12 1 1 54 1 2 1 0 264 b03.gif 1 X 
12 1 1 55 1 0 1 0 396 b02.gif 1 X 
12 1 1 56 1 2 1 0 564 b03.gif 1 X 
12 1 1 57 1 1 2 0 507 f07.gif 1 X 
12 1 1 58 1 0 2 0 172 f06.gif 1 X 
12 1 1 59 1 2 2 1 340 f03.gif 1 X 
12 1 1 60 1 2 2 1 724 f05.gif 1 X 
12 1 1 61 1 2 0 0 390 a02.gif 1 X 
12 1 1 62 1 0 0 1 228 a02.gif 1 X 
12 1 1 63 1 0 0 1 276 a03.gif 1 X 
12 1 1 64 1 0 0 1 69 a04.gif 1 X 
12 1 1 65 1 0 0 1 82 a02.gif 1 X 
12 1 1 66 1 0 0 1 395 a08.gif 1 X 
12 1 1 67 1 0 0 1 261 a06.gif 1 X 
12 1 1 68 1 0 0 1 221 a03.gif 1 X 
12 1 1 69 1 1 0 0 505 a04.gif 1 X 
12 1 1 70 1 0 0 1 260 a01.gif 1 X 
12 1 1 71 1 0 0 1 92 a08.gif 1 X 
12 1 1 72 2 2 2 1 1521 f02.gif 1 X 
12 1 1 73 2 2 2 1 282 f03.gif 1 X 
12 1 1 74 2 2 1 0 149 b06.gif 1 X 
12 1 1 75 2 1 1 1 276 b08.gif 1 X 
12 1 1 76 2 1 1 1 389 b05.gif 1 X 
12 1 1 77 2 0 2 0 405 f01.gif 1 X 
12 1 1 78 2 2 0 0 205 a05.gif 1 X 
12 1 1 79 2 0 0 1 213 a08.gif 1 X 
12 1 1 80 2 0 0 1 277 a01.gif 1 X 
12 1 1 81 2 0 0 1 221 a02.gif 1 X 
12 1 1 82 2 0 2 0 277 f03.gif 1 X 
12 1 1 83 2 2 2 1 147 f05.gif 1 X 
12 1 1 84 2 2 0 0 236 a07.gif 1 X 
12 1 1 85 2 1 1 1 228 b08.gif 1 X 
12 1 1 86 2 1 1 1 253 b04.gif 1 X 
12 1 1 87 2 1 1 1 132 b01.gif 1 X 
12 1 1 88 2 1 1 1 219 b08.gif 1 X 
12 1 1 89 2 2 1 0 236 b05.gif 1 X 
12 1 1 90 2 1 2 0 244 f04.gif 1 X 
12 1 1 91 2 0 2 0 275 f01.gif 1 X 
12 1 1 92 2 2 2 1 260 f08.gif 1 X 
12 1 1 93 2 2 2 1 301 f06.gif 1 X 
12 1 1 94 2 2 2 1 301 f01.gif 1 X 
12 1 1 95 2 2 2 1 281 f03.gif 1 X 
12 1 1 96 2 2 0 0 381 a04.gif 1 X 
12 1 1 97 2 2 0 0 396 a07.gif 1 X 
12 1 1 98 2 0 0 1 180 a07.gif 1 X 
12 1 1 99 2 0 0 1 172 a01.gif 1 X 
12 1 1 100 2 0 0 1 45 a03.gif 1 X 
12 1 1 101 2 0 2 0 69 f02.gif 1 X 
12 1 1 102 2 2 0 0 410 a06.gif 1 X 
12 1 1 103 2 2 0 0 291 a08.gif 1 X 
12 1 1 104 2 0 1 0 244 b01.gif 1 X 
12 1 1 105 2 1 1 1 196 b06.gif 1 X 
12 1 1 106 2 1 1 1 245 b02.gif 1 X 
12 1 1 107 2 0 1 0 436 b03.gif 1 X 
12 1 1 108 2 1 1 1 67 b04.gif 1 X 
12 1 1 109 2 1 1 1 382 b07.gif 1 X 
12 1 1 110 2 1 2 0 284 f04.gif 1 X 
12 1 1 111 2 0 2 0 313 f06.gif 1 X 
12 1 1 112 2 2 2 1 188 f08.gif 1 X 
12 1 1 113 2 2 2 1 307 f07.gif 1 X 
12 1 1 114 2 1 1 1 178 b01.gif 1 X 
12 1 1 115 2 1 1 1 322 b07.gif 1 X 
12 1 1 116 2 1 1 1 269 b04.gif 1 X 
12 1 1 117 2 2 1 0 292 b06.gif 1 X 
12 1 1 118 2 1 1 1 317 b02.gif 1 X 
12 1 1 119 2 1 1 1 252 b07.gif 1 X 
12 1 1 120 2 1 1 1 299 b07.gif 1 X 
12 1 1 121 2 1 1 1 236 b05.gif 1 X 
12 1 1 122 2 1 1 1 301 b01.gif 1 X 
12 1 1 123 2 1 1 1 474 b03.gif 1 X 
12 1 1 124 2 2 0 0 325 a07.gif 1 X 
12 1 1 125 2 0 2 0 228 f07.gif 1 X 
12 1 1 126 2 1 1 1 291 b03.gif 1 X 
12 1 1 127 2 1 1 1 484 b02.gif 1 X 
12 1 1 128 2 1 1 1 293 b03.gif 1 X 
12 1 1 129 2 0 2 0 372 f07.gif 1 X 
12 1 1 130 2 0 2 0 893 f06.gif 1 X 
12 1 1 131 2 1 2 0 406 f03.gif 1 X 
12 1 1 132 2 2 2 1 148 f05.gif 1 X 
12 1 1 133 2 2 0 0 277 a02.gif 1 X 
12 1 1 134 2 0 0 1 203 a02.gif 1 X 
12 1 1 135 2 0 0 1 189 a03.gif 1 X 
12 1 1 136 2 2 0 0 332 a04.gif 1 X 
12 1 1 137 2 0 0 1 292 a02.gif 1 X 
12 1 1 138 2 0 0 1 253 a08.gif 1 X 
12 1 1 139 2 0 0 1 380 a06.gif 1 X 
12 1 1 140 2 0 0 1 156 a03.gif 1 X 
12 1 1 141 2 1 0 0 324 a04.gif 1 X 
12 1 1 142 2 0 0 1 333 a01.gif 1 X 
12 1 1 143 2 0 0 1 261 a08.gif 1 X 
12 1 1 144 3 0 2 0 649 f02.gif 1 X 
12 1 1 145 3 1 2 0 204 f03.gif 1 X 
12 1 1 146 3 2 1 0 269 b06.gif 1 X 
12 1 1 147 3 1 1 1 381 b08.gif 1 X 
12 1 1 148 3 1 1 1 316 b05.gif 1 X 
12 1 1 149 3 1 2 0 236 f01.gif 1 X 
12 1 1 150 3 1 0 0 428 a05.gif 1 X 
12 1 1 151 3 0 0 1 195 a08.gif 1 X 
12 1 1 152 3 2 0 0 2437 a01.gif 1 X 
12 1 1 153 3 2 0 0 393 a02.gif 1 X 
12 1 1 154 3 0 2 0 366 f03.gif 1 X 
12 1 1 155 3 1 2 0 589 f05.gif 1 X 
12 1 1 156 3 0 0 1 360 a07.gif 1 X 
12 1 1 157 3 2 1 0 356 b08.gif 1 X 
12 1 1 158 3 2 1 0 364 b04.gif 1 X 
12 1 1 159 3 1 1 1 195 b01.gif 1 X 
12 1 1 160 3 1 1 1 277 b08.gif 1 X 
12 1 1 161 3 1 1 1 196 b05.gif 1 X 
12 1 1 162 3 1 2 0 133 f04.gif 1 X 
12 1 1 163 3 2 2 1 293 f01.gif 1 X 
12 1 1 164 3 2 2 1 628 f08.gif 1 X 
12 1 1 165 3 2 2 1 316 f06.gif 1 X 
12 1 1 166 3 2 2 1 532 f01.gif 1 X 
12 1 1 167 3 0 2 0 589 f03.gif 1 X 
12 1 1 168 3 1 0 0 484 a04.gif 1 X 
12 1 1 169 3 0 0 1 331 a07.gif 1 X 
12 1 1 170 3 0 0 1 430 a07.gif 1 X 
12 1 1 171 3 0 0 1 557 a01.gif 1 X 
12 1 1 172 3 0 0 1 339 a03.gif 1 X 
12 1 1 173 3 0 2 0 549 f02.gif 1 X 
12 1 1 174 3 2 0 0 379 a06.gif 1 X 
12 1 1 175 3 2 0 0 156 a08.gif 1 X 
12 1 1 176 3 2 1 0 292 b01.gif 1 X 
12 1 1 177 3 1 1 1 157 b06.gif 1 X 
12 1 1 178 3 1 1 1 133 b02.gif 1 X 
12 1 1 179 3 1 1 1 589 b03.gif 1 X 
12 1 1 180 3 1 1 1 277 b04.gif 1 X 
12 1 1 181 3 1 1 1 189 b07.gif 1 X 
12 1 1 182 3 1 2 0 372 f04.gif 1 X 
12 1 1 183 3 2 2 1 364 f06.gif 1 X 
12 1 1 184 3 2 2 1 236 f08.gif 1 X 
12 1 1 185 3 2 2 1 101 f07.gif 1 X 
12 1 1 186 3 1 1 1 350 b01.gif 1 X 
12 1 1 187 3 1 1 1 85 b07.gif 1 X 
12 1 1 188 3 1 1 1 300 b04.gif 1 X 
12 1 1 189 3 1 1 1 213 b06.gif 1 X 
12 1 1 190 3 1 1 1 236 b02.gif 1 X 
12 1 1 191 3 1 1 1 132 b07.gif 1 X 
12 1 1 192 3 1 1 1 133 b07.gif 1 X 
12 1 1 193 3 1 1 1 213 b05.gif 1 X 
12 1 1 194 3 1 1 1 222 b01.gif 1 X 
12 1 1 195 3 1 1 1 93 b03.gif 1 X 
12 1 1 196 3 1 0 0 213 a07.gif 1 X 
12 1 1 197 3 0 2 0 325 f07.gif 1 X 
12 1 1 198 3 1 1 1 284 b03.gif 1 X 
12 1 1 199 3 1 1 1 293 b02.gif 1 X 
12 1 1 200 3 1 1 1 302 b03.gif 1 X 
12 1 1 201 3 1 2 0 190 f07.gif 1 X 
12 1 1 202 3 2 2 1 284 f06.gif 1 X 
12 1 1 203 3 2 2 1 229 f03.gif 1 X 
12 1 1 204 3 2 2 1 268 f05.gif 1 X 
12 1 1 205 3 0 0 1 221 a02.gif 1 X 
12 1 1 206 3 0 0 1 125 a02.gif 1 X 
12 1 1 207 3 0 0 1 333 a03.gif 1 X 
12 1 1 208 3 2 0 0 301 a04.gif 1 X 
12 1 1 209 3 0 0 1 236 a02.gif 1 X 
12 1 1 210 3 0 0 1 229 a08.gif 1 X 
12 1 1 211 3 0 0 1 29 a06.gif 1 X 
12 1 1 212 3 0 0 1 253 a03.gif 1 X 
12 1 1 213 3 0 0 1 149 a04.gif 1 X 
12 1 1 214 3 0 0 1 269 a01.gif 1 X 
12 1 1 215 3 0 0 1 220 a08.gif 1 X 
12 1 1 216 4 1 2 0 1145 f02.gif 1 X 
12 1 1 217 4 2 2 1 228 f03.gif 1 X 
12 1 1 218 4 2 1 0 220 b06.gif 1 X 
12 1 1 219 4 1 1 1 29 b08.gif 1 X 
12 1 1 220 4 1 1 1 228 b05.gif 1 X 
12 1 1 221 4 1 2 0 46 f01.gif 1 X 
12 1 1 222 4 0 0 1 243 a05.gif 1 X 
12 1 1 223 4 0 0 1 301 a08.gif 1 X 
12 1 1 224 4 0 0 1 277 a01.gif 1 X 
12 1 1 225 4 0 0 1 285 a02.gif 1 X 
12 1 1 226 4 0 2 0 245 f03.gif 1 X 
12 1 1 227 4 1 2 0 107 f05.gif 1 X 
12 1 1 228 4 1 0 0 465 a07.gif 1 X 
12 1 1 229 4 2 1 0 244 b08.gif 1 X 
12 1 1 230 4 1 1 1 317 b04.gif 1 X 
12 1 1 231 4 1 1 1 267 b01.gif 1 X 
12 1 1 232 4 1 1 1 468 b08.gif 1 X 
12 1 1 233 4 1 1 1 317 b05.gif 1 X 
12 1 1 234 4 1 2 0 324 f04.gif 1 X 
12 1 1 235 4 0 2 0 605 f01.gif 1 X 
12 1 1 236 4 2 2 1 396 f08.gif 1 X 
12 1 1 237 4 2 2 1 548 f06.gif 1 X 
12 1 1 238 4 2 2 1 491 f01.gif 1 X 
12 1 1 239 4 2 2 1 308 f03.gif 1 X 
12 1 1 240 4 1 0 0 308 a04.gif 1 X 
12 1 1 241 4 0 0 1 252 a07.gif 1 X 
12 1 1 242 4 0 0 1 381 a07.gif 1 X 
12 1 1 243 4 0 0 1 269 a01.gif 1 X 
12 1 1 244 4 0 0 1 364 a03.gif 1 X 
12 1 1 245 4 0 2 0 366 f02.gif 1 X 
12 1 1 246 4 2 0 0 125 a06.gif 1 X 
12 1 1 247 4 2 0 0 197 a08.gif 1 X 
12 1 1 248 4 0 1 0 539 b01.gif 1 X 
12 1 1 249 4 1 1 1 501 b06.gif 1 X 
12 1 1 250 4 1 1 1 900 b02.gif 1 X 
12 1 1 251 4 1 1 1 173 b03.gif 1 X 
12 1 1 252 4 1 1 1 76 b04.gif 1 X 
12 1 1 253 4 1 1 1 156 b07.gif 1 X 
12 1 1 254 4 1 2 0 29 f04.gif 1 X 
12 1 1 255 4 2 2 1 381 f06.gif 1 X 
12 1 1 256 4 2 2 1 141 f08.gif 1 X 
12 1 1 257 4 2 2 1 197 f07.gif 1 X 
12 1 1 258 4 1 1 1 782 b01.gif 1 X 
12 1 1 259 4 1 1 1 141 b07.gif 1 X 
12 1 1 260 4 0 1 0 451 b04.gif 1 X 
12 1 1 261 4 1 1 1 341 b06.gif 1 X 
12 1 1 262 4 1 1 1 172 b02.gif 1 X 
12 1 1 263 4 1 1 1 317 b07.gif 1 X 
12 1 1 264 4 1 1 1 141 b07.gif 1 X 
12 1 1 265 4 1 1 1 92 b05.gif 1 X 
12 1 1 266 4 1 1 1 117 b01.gif 1 X 
12 1 1 267 4 1 1 1 308 b03.gif 1 X 
12 1 1 268 4 2 0 0 478 a07.gif 1 X 
12 1 1 269 4 0 2 0 132 f07.gif 1 X 
12 1 1 270 4 0 1 0 579 b03.gif 1 X 
12 1 1 271 4 1 1 1 92 b02.gif 1 X 
12 1 1 272 4 1 1 1 140 b03.gif 1 X 
12 1 1 273 4 1 2 0 277 f07.gif 1 X 
12 1 1 274 4 1 2 0 445 f06.gif 1 X 
12 1 1 275 4 2 2 1 571 f03.gif 1 X 
12 1 1 276 4 2 2 1 253 f05.gif 1 X 
12 1 1 277 4 2 0 0 276 a02.gif 1 X 
12 1 1 278 4 0 0 1 380 a02.gif 1 X 
12 1 1 279 4 0 0 1 333 a03.gif 1 X 
12 1 1 280 4 0 0 1 99 a04.gif 1 X 
12 1 1 281 4 0 0 1 189 a02.gif 1 X 
12 1 1 282 4 0 0 1 429 a08.gif 1 X 
12 1 1 283 4 1 0 0 1165 a06.gif 1 X 
12 1 1 284 4 0 0 1 1052 a03.gif 1 X 
12 1 1 285 4 0 0 1 141 a04.gif 1 X 
12 1 1 286 4 0 0 1 228 a01.gif 1 X 
12 1 1 287 4 0 0 1 262 a08.gif 1 X 
12 1 3 288 5 1 1 1 1176 b12.gif 1 0
12 1 3 289 5 2 0 0 930 a05.gif 1 1
12 1 3 290 5 1 1 1 363 b04.gif 1 1
12 1 3 291 5 1 1 1 162 b11.gif 1 0
12 1 3 292 5 1 2 0 201 f01.gif 1 1
12 1 3 293 5 0 2 0 1026 f06.gif 1 1
12 1 3 294 5 0 2 0 298 f09.gif 1 0
12 1 3 295 5 1 1 1 393 b16.gif 1 0
12 1 3 296 5 1 1 1 443 b08.gif 1 1
12 1 3 297 5 2 0 0 921 a13.gif 1 0
12 1 3 298 5 2 2 1 346 f13.gif 1 0
12 1 3 299 5 2 2 1 113 f15.gif 1 0
12 1 3 300 5 0 2 0 1137 f04.gif 1 1
12 1 3 301 5 2 2 1 754 f08.gif 1 1
12 1 3 302 5 0 2 0 393 f07.gif 1 1
12 1 3 303 5 0 0 1 337 a14.gif 1 0
12 1 3 304 5 0 2 0 138 f14.gif 1 0
12 1 3 305 5 0 0 1 291 a06.gif 1 1
12 1 3 306 5 0 2 0 210 f16.gif 1 0
12 1 3 307 5 0 0 1 306 a01.gif 1 1
12 1 3 308 5 2 0 0 498 a08.gif 1 1
12 1 3 309 5 2 1 0 570 b14.gif 1 0
12 1 3 310 5 2 0 0 570 a16.gif 1 0
12 1 3 311 5 2 0 0 68 a11.gif 1 0
12 1 3 312 5 2 2 1 475 f03.gif 1 1
12 1 3 313 5 2 0 0 243 a10.gif 1 0
12 1 3 314 5 2 0 0 91 a12.gif 1 0
12 1 3 315 5 1 1 1 1840 b02.gif 1 1
12 1 3 316 5 1 0 0 426 a02.gif 1 1
12 1 3 317 5 1 1 1 177 b07.gif 1 1
12 1 3 318 5 2 2 1 266 f12.gif 1 0
12 1 3 319 5 2 0 0 322 a09.gif 1 0
12 1 3 320 5 2 0 0 98 a07.gif 1 1
12 1 3 321 5 1 1 1 371 b01.gif 1 1
12 1 3 322 5 1 1 1 114 b09.gif 1 0
12 1 3 323 5 1 2 0 330 f05.gif 1 1
12 1 3 324 5 0 0 1 1202 a03.gif 1 1
12 1 3 325 5 1 0 0 290 a04.gif 1 1
12 1 3 326 5 0 1 0 194 b13.gif 1 0
12 1 3 327 5 1 1 1 250 b05.gif 1 1
12 1 3 328 5 2 0 0 186 a15.gif 1 0
12 1 3 329 5 0 1 0 11 b03.gif 1 1
12 1 3 330 5 1 1 1 527 b15.gif 1 0
12 1 3 331 5 0 2 0 314 f11.gif 1 0
12 1 3 332 5 0 2 0 146 f10.gif 1 0
12 1 3 333 5 1 1 1 186 b10.gif 1 0
12 1 3 334 5 2 2 1 82 f02.gif 1 1
12 1 3 335 5 1 1 1 112 b06.gif 1 1
12 1 1 336 1 2 1 0 272 c05.gif 0 X
12 1 1 337 1 1 1 1 838 c08.gif 0 X
12 1 1 338 1 1 1 1 213 c01.gif 0 X
12 1 1 339 1 1 2 0 54 e05.gif 0 X
12 1 1 340 1 2 2 1 470 e06.gif 0 X
12 1 1 341 1 2 1 0 403 c02.gif 0 X
12 1 1 342 1 1 2 0 530 e02.gif 0 X
12 1 1 343 1 0 0 1 172 d06.gif 0 X
12 1 1 344 1 1 0 0 964 d05.gif 0 X
12 1 1 345 1 0 1 0 180 c07.gif 0 X
12 1 1 346 1 2 1 0 260 c08.gif 0 X
12 1 1 347 1 1 0 0 413 d04.gif 0 X
12 1 1 348 1 1 2 0 6323 e06.gif 0 X
12 1 1 349 1 0 2 0 438 e04.gif 0 X
12 1 1 350 1 2 0 0 172 d06.gif 0 X
12 1 1 351 1 0 0 1 332 d05.gif 0 X
12 1 1 352 1 0 0 1 300 d03.gif 0 X
12 1 1 353 1 0 1 0 37 c04.gif 0 X
12 1 1 354 1 0 1 0 205 c02.gif 0 X
12 1 1 355 1 1 0 0 212 d02.gif 0 X
12 1 1 356 1 2 2 1 324 e02.gif 0 X
12 1 1 357 1 2 1 0 245 c05.gif 0 X
12 1 1 358 1 0 0 1 433 d04.gif 0 X
12 1 1 359 1 1 2 0 165 e02.gif 0 X
12 1 1 360 1 0 1 0 251 c07.gif 0 X
12 1 1 361 1 2 2 1 379 e07.gif 0 X
12 1 1 362 1 2 0 0 332 d01.gif 0 X
12 1 1 363 1 1 2 0 276 e08.gif 0 X
12 1 1 364 1 0 0 1 149 d02.gif 0 X
12 1 1 365 1 2 1 0 316 c06.gif 0 X
12 1 1 366 1 1 2 0 252 e03.gif 0 X
12 1 1 367 1 0 0 1 276 d02.gif 0 X
12 1 1 368 1 2 1 0 212 c02.gif 0 X
12 1 1 369 1 1 2 0 276 e08.gif 0 X
12 1 1 370 1 0 0 1 276 d04.gif 0 X
12 1 1 371 1 0 1 0 211 c01.gif 0 X
12 1 1 372 1 1 2 0 436 e05.gif 0 X
12 1 1 373 1 1 1 1 14 c03.gif 0 X
12 1 1 374 1 0 2 0 27 e01.gif 0 X
12 1 1 375 1 1 1 1 26 c04.gif 0 X
12 1 1 376 1 1 0 0 532 d04.gif 0 X
12 1 1 377 1 0 1 0 292 c08.gif 0 X
12 1 1 378 1 2 1 0 276 c05.gif 0 X
12 1 1 379 1 1 2 0 51 e01.gif 0 X
12 1 1 380 1 2 0 0 372 d07.gif 0 X
12 1 1 381 1 0 2 0 261 e06.gif 0 X
12 1 1 382 1 1 1 1 149 c07.gif 0 X
12 1 1 383 1 1 0 0 204 d06.gif 0 X
12 1 1 384 1 0 1 0 450 c03.gif 0 X
12 1 1 385 1 2 2 1 347 e08.gif 0 X
12 1 1 386 1 1 1 1 21 c08.gif 0 X
12 1 1 387 1 1 2 0 125 e03.gif 0 X
12 1 1 388 1 2 2 1 334 e07.gif 0 X
12 1 1 389 1 0 0 1 293 d07.gif 0 X
12 1 1 390 1 1 2 0 197 e02.gif 0 X
12 1 1 391 1 0 0 1 364 d02.gif 0 X
12 1 1 392 1 2 0 0 885 d08.gif 0 X
12 1 1 393 1 0 1 0 411 c06.gif 0 X
12 1 1 394 1 2 0 0 556 d03.gif 0 X
12 1 1 395 1 0 2 0 332 e03.gif 0 X
12 1 1 396 1 1 1 1 195 c02.gif 0 X
12 1 1 397 1 1 2 0 261 e01.gif 0 X
12 1 1 398 1 2 0 0 14 d07.gif 0 X
12 1 1 399 1 0 1 0 80 c06.gif 0 X
12 1 1 400 1 1 1 1 83 c04.gif 0 X
12 1 1 401 1 1 2 0 270 e04.gif 0 X
12 1 1 402 1 2 2 1 233 e07.gif 0 X
12 1 1 403 1 0 0 1 261 d01.gif 0 X
12 1 1 404 1 2 1 0 629 c07.gif 0 X
12 1 1 405 1 1 0 0 156 d08.gif 0 X
12 1 1 406 1 0 2 0 277 e04.gif 0 X
12 1 1 407 1 1 1 1 556 c01.gif 0 X
12 1 1 408 2 2 1 0 370 c05.gif 0 X
12 1 1 409 2 1 1 1 76 c08.gif 0 X
12 1 1 410 2 0 1 0 205 c01.gif 0 X
12 1 1 411 2 0 2 0 59 e05.gif 0 X
12 1 1 412 2 2 2 1 43 e06.gif 0 X
12 1 1 413 2 1 1 1 36 c02.gif 0 X
12 1 1 414 2 0 2 0 101 e02.gif 0 X
12 1 1 415 2 2 0 0 36 d06.gif 0 X
12 1 1 416 2 1 0 0 186 d05.gif 0 X
12 1 1 417 2 1 1 1 212 c07.gif 0 X
12 1 1 418 2 2 1 0 114 c08.gif 0 X
12 1 1 419 2 1 0 0 458 d04.gif 0 X
12 1 1 420 2 0 2 0 116 e06.gif 0 X
12 1 1 421 2 2 2 1 76 e04.gif 0 X
12 1 1 422 2 1 0 0 68 d06.gif 0 X
12 1 1 423 2 0 0 1 204 d05.gif 0 X
12 1 1 424 2 0 0 1 134 d03.gif 0 X
12 1 1 425 2 2 1 0 53 c04.gif 0 X
12 1 1 426 2 1 1 1 68 c02.gif 0 X
12 1 1 427 2 0 0 1 69 d02.gif 0 X
12 1 1 428 2 1 2 0 20 e02.gif 0 X
12 1 1 429 2 1 1 1 148 c05.gif 0 X
12 1 1 430 2 0 0 1 165 d04.gif 0 X
12 1 1 431 2 1 2 0 133 e02.gif 0 X
12 1 1 432 2 1 1 1 124 c07.gif 0 X
12 1 1 433 2 2 2 1 27 e07.gif 0 X
12 1 1 434 2 2 0 0 20 d01.gif 0 X
12 1 1 435 2 2 2 1 116 e08.gif 0 X
12 1 1 436 2 1 0 0 28 d02.gif 0 X
12 1 1 437 2 1 1 1 67 c06.gif 0 X
12 1 1 438 2 2 2 1 221 e03.gif 0 X
12 1 1 439 2 1 0 0 181 d02.gif 0 X
12 1 1 440 2 2 1 0 186 c02.gif 0 X
12 1 1 441 2 0 2 0 101 e08.gif 0 X
12 1 1 442 2 2 0 0 14 d04.gif 0 X
12 1 1 443 2 1 1 1 167 c01.gif 0 X
12 1 1 444 2 2 2 1 78 e05.gif 0 X
12 1 1 445 2 0 1 0 45 c03.gif 0 X
12 1 1 446 2 2 2 1 116 e01.gif 0 X
12 1 1 447 2 2 1 0 37 c04.gif 0 X
12 1 1 448 2 0 0 1 141 d04.gif 0 X
12 1 1 449 2 0 1 0 53 c08.gif 0 X
12 1 1 450 2 2 1 0 157 c05.gif 0 X
12 1 1 451 2 2 2 1 84 e01.gif 0 X
12 1 1 452 2 1 0 0 68 d07.gif 0 X
12 1 1 453 2 2 2 1 188 e06.gif 0 X
12 1 1 454 2 2 1 0 93 c07.gif 0 X
12 1 1 455 2 0 0 1 170 d06.gif 0 X
12 1 1 456 2 2 1 0 109 c03.gif 0 X
12 1 1 457 2 1 2 0 45 e08.gif 0 X
12 1 1 458 2 0 1 0 29 c08.gif 0 X
12 1 1 459 2 2 2 1 75 e03.gif 0 X
12 1 1 460 2 1 2 0 16 e07.gif 0 X
12 1 1 461 2 1 0 0 50 d07.gif 0 X
12 1 1 462 2 1 2 0 988 e02.gif 0 X
12 1 1 463 2 1 0 0 19 d02.gif 0 X
12 1 1 464 2 2 0 0 75 d08.gif 0 X
12 1 1 465 2 0 1 0 290 c06.gif 0 X
12 1 1 466 2 2 0 0 53 d03.gif 0 X
12 1 1 467 2 2 2 1 5 e03.gif 0 X
12 1 1 468 2 0 1 0 963 c02.gif 0 X
12 1 1 469 2 0 2 0 28 e01.gif 0 X
12 1 1 470 2 2 0 0 180 d07.gif 0 X
12 1 1 471 2 0 1 0 155 c06.gif 0 X
12 1 1 472 2 2 1 0 76 c04.gif 0 X
12 1 1 473 2 2 2 1 196 e04.gif 0 X
12 1 1 474 2 0 2 0 69 e07.gif 0 X
12 1 1 475 2 1 0 0 52 d01.gif 0 X
12 1 1 476 2 1 1 1 72 c07.gif 0 X
12 1 1 477 2 1 0 0 108 d08.gif 0 X
12 1 1 478 2 1 2 0 69 e04.gif 0 X
12 1 1 479 2 2 1 0 132 c01.gif 0 X
12 1 1 480 3 0 1 0 498 c05.gif 0 X
12 1 1 481 3 1 1 1 76 c08.gif 0 X
12 1 1 482 3 1 1 1 125 c01.gif 0 X
12 1 1 483 3 0 2 0 36 e05.gif 0 X
12 1 1 484 3 0 2 0 125 e06.gif 0 X
12 1 1 485 3 1 1 1 107 c02.gif 0 X
12 1 1 486 3 2 2 1 108 e02.gif 0 X
12 1 1 487 3 0 0 1 69 d06.gif 0 X
12 1 1 488 3 1 0 0 165 d05.gif 0 X
12 1 1 489 3 2 1 0 101 c07.gif 0 X
12 1 1 490 3 2 1 0 12 c08.gif 0 X
12 1 1 491 3 2 0 0 3 d04.gif 0 X
12 1 1 492 3 1 2 0 106 e06.gif 0 X
12 1 1 493 3 2 2 1 85 e04.gif 0 X
12 1 1 494 3 0 0 1 212 d06.gif 0 X
12 1 1 495 3 2 0 0 62 d05.gif 0 X
12 1 1 496 3 2 0 0 108 d03.gif 0 X
12 1 1 497 3 2 1 0 148 c04.gif 0 X
12 1 1 498 3 0 1 0 116 c02.gif 0 X
12 1 1 499 3 1 0 0 36 d02.gif 0 X
12 1 1 500 3 0 2 0 132 e02.gif 0 X
12 1 1 501 3 0 1 0 28 c05.gif 0 X
12 1 1 502 3 1 0 0 15 d04.gif 0 X
12 1 1 503 3 0 2 0 92 e02.gif 0 X
12 1 1 504 3 2 1 0 36 c07.gif 0 X
12 1 1 505 3 0 2 0 68 e07.gif 0 X
12 1 1 506 3 0 0 1 68 d01.gif 0 X
12 1 1 507 3 1 2 0 77 e08.gif 0 X
12 1 1 508 3 0 0 1 140 d02.gif 0 X
12 1 1 509 3 0 1 0 85 c06.gif 0 X
12 1 1 510 3 2 2 1 108 e03.gif 0 X
12 1 1 511 3 1 0 0 116 d02.gif 0 X
12 1 1 512 3 1 1 1 25 c02.gif 0 X
12 1 1 513 3 2 2 1 51 e08.gif 0 X
12 1 1 514 3 2 0 0 174 d04.gif 0 X
12 1 1 515 3 1 1 1 19 c01.gif 0 X
12 1 1 516 3 2 2 1 93 e05.gif 0 X
12 1 1 517 3 1 1 1 77 c03.gif 0 X
12 1 1 518 3 2 2 1 93 e01.gif 0 X
12 1 1 519 3 2 1 0 37 c04.gif 0 X
12 1 1 520 3 2 0 0 44 d04.gif 0 X
12 1 1 521 3 1 1 1 188 c08.gif 0 X
12 1 1 522 3 2 1 0 61 c05.gif 0 X
12 1 1 523 3 1 2 0 11 e01.gif 0 X
12 1 1 524 3 1 0 0 169 d07.gif 0 X
12 1 1 525 3 2 2 1 4 e06.gif 0 X
12 1 1 526 3 1 1 1 169 c07.gif 0 X
12 1 1 527 3 2 0 0 109 d06.gif 0 X
12 1 1 528 3 1 1 1 1037 c03.gif 0 X
12 1 1 529 3 0 2 0 13 e08.gif 0 X
12 1 1 530 3 0 1 0 34 c08.gif 0 X
12 1 1 531 3 0 2 0 28 e03.gif 0 X
12 1 1 532 3 2 2 1 20 e07.gif 0 X
12 1 1 533 3 0 0 1 109 d07.gif 0 X
12 1 1 534 3 1 2 0 133 e02.gif 0 X
12 1 1 535 3 1 0 0 163 d02.gif 0 X
12 1 1 536 3 1 0 0 792 d08.gif 0 X
12 1 1 537 3 1 1 1 43 c06.gif 0 X
12 1 1 538 3 1 0 0 397 d03.gif 0 X
12 1 1 539 3 1 2 0 659 e03.gif 0 X
12 1 1 540 3 2 1 0 168 c02.gif 0 X
12 1 1 541 3 0 2 0 67 e01.gif 0 X
12 1 1 542 3 1 0 0 155 d07.gif 0 X
12 1 1 543 3 2 1 0 42 c06.gif 0 X
12 1 1 544 3 2 1 0 100 c04.gif 0 X
12 1 1 545 3 1 2 0 1387 e04.gif 0 X
12 1 1 546 3 2 2 1 1026 e07.gif 0 X
12 1 1 547 3 0 0 1 1932 d01.gif 0 X
12 1 1 548 3 0 1 0 444 c07.gif 0 X
12 1 1 549 3 1 0 0 92 d08.gif 0 X
12 1 1 550 3 2 2 1 227 e04.gif 0 X
12 1 1 551 3 1 1 1 228 c01.gif 0 X
12 1 1 552 4 1 1 1 3256 c05.gif 0 X
12 1 1 553 4 2 1 0 14 c08.gif 0 X
12 1 1 554 4 2 1 0 299 c01.gif 0 X
12 1 1 555 4 1 2 0 4116 e05.gif 0 X
12 1 1 556 4 1 2 0 231 e06.gif 0 X
12 1 1 557 4 2 1 0 330 c02.gif 0 X
12 1 1 558 4 1 2 0 92 e02.gif 0 X
12 1 1 559 4 1 0 0 20 d06.gif 0 X
12 1 1 560 4 1 0 0 18 d05.gif 0 X
12 1 1 561 4 0 1 0 2219 c07.gif 0 X
12 1 1 562 4 2 1 0 603 c08.gif 0 X
12 1 1 563 4 0 0 1 170 d04.gif 0 X
12 1 1 564 4 0 2 0 52 e06.gif 0 X
12 1 1 565 4 2 2 1 26 e04.gif 0 X
12 1 1 566 4 2 0 0 28 d06.gif 0 X
12 1 1 567 4 2 0 0 20 d05.gif 0 X
12 1 1 568 4 2 0 0 59 d03.gif 0 X
12 1 1 569 4 2 1 0 2533 c04.gif 0 X
12 1 1 570 4 1 1 1 171 c02.gif 0 X
12 1 1 571 4 0 0 1 108 d02.gif 0 X
12 1 1 572 4 2 2 1 219 e02.gif 0 X
12 1 1 573 4 1 1 1 125 c05.gif 0 X
12 1 1 574 4 0 0 1 93 d04.gif 0 X
12 1 1 575 4 2 2 1 205 e02.gif 0 X
12 1 1 576 4 1 1 1 214 c07.gif 0 X
12 1 1 577 4 0 2 0 172 e07.gif 0 X
12 1 1 578 4 2 0 0 124 d01.gif 0 X
12 1 1 579 4 1 2 0 131 e08.gif 0 X
12 1 1 580 4 2 0 0 260 d02.gif 0 X
12 1 1 581 4 2 1 0 284 c06.gif 0 X
12 1 1 582 4 0 2 0 210 e03.gif 0 X
12 1 1 583 4 1 0 0 196 d02.gif 0 X
12 1 1 584 4 0 1 0 279 c02.gif 0 X
12 1 1 585 4 2 2 1 476 e08.gif 0 X
12 1 1 586 4 0 0 1 11 d04.gif 0 X
12 1 1 587 4 0 1 0 29 c01.gif 0 X
12 1 1 588 4 0 2 0 115 e05.gif 0 X
12 1 1 589 4 0 1 0 140 c03.gif 0 X
12 1 1 590 4 0 2 0 75 e01.gif 0 X
12 1 1 591 4 2 1 0 67 c04.gif 0 X
12 1 1 592 4 1 0 0 265 d04.gif 0 X
12 1 1 593 4 2 1 0 133 c08.gif 0 X
12 1 1 594 4 2 1 0 874 c05.gif 0 X
12 1 1 595 4 1 2 0 216 e01.gif 0 X
12 1 1 596 4 1 0 0 18 d07.gif 0 X
12 1 1 597 4 1 2 0 13 e06.gif 0 X
12 1 1 598 4 1 1 1 554 c07.gif 0 X
12 1 1 599 4 1 0 0 520 d06.gif 0 X
12 1 1 600 4 0 1 0 460 c03.gif 0 X
12 1 1 601 4 2 2 1 2388 e08.gif 0 X
12 1 1 602 4 1 1 1 2100 c08.gif 0 X
12 1 1 603 4 0 2 0 157 e03.gif 0 X
12 1 1 604 4 2 2 1 3307 e07.gif 0 X
12 1 1 605 4 1 0 0 894 d07.gif 0 X
12 1 1 606 4 0 2 0 1219 e02.gif 0 X
12 1 1 607 4 2 0 0 257 d02.gif 0 X
12 1 1 608 4 1 0 0 285 d08.gif 0 X
12 1 1 609 4 0 1 0 356 c06.gif 0 X
12 1 1 610 4 2 0 0 340 d03.gif 0 X
12 1 1 611 4 1 2 0 117 e03.gif 0 X
12 1 1 612 4 2 1 0 237 c02.gif 0 X
12 1 1 613 4 0 2 0 212 e01.gif 0 X
12 1 1 614 4 2 0 0 106 d07.gif 0 X
12 1 1 615 4 1 1 1 212 c06.gif 0 X
12 1 1 616 4 0 1 0 628 c04.gif 0 X
12 1 1 617 4 1 2 0 228 e04.gif 0 X
12 1 1 618 4 2 2 1 300 e07.gif 0 X
12 1 1 619 4 1 0 0 996 d01.gif 0 X
12 1 1 620 4 0 1 0 180 c07.gif 0 X
12 1 1 621 4 2 0 0 34 d08.gif 0 X
12 1 1 622 4 2 2 1 9498 e04.gif 0 X
12 1 1 623 4 0 1 0 156 c01.gif 0 X
12 1 3 624 10 1 2 0 447 e10.gif 0 0
12 1 3 625 10 0 0 1 234 d13.gif 0 0
12 1 3 626 10 2 0 0 250 d06.gif 0 1
12 1 3 627 10 1 1 1 73 c06.gif 0 1
12 1 3 628 10 2 1 0 258 c09.gif 0 0
12 1 3 629 10 0 1 0 170 c11.gif 0 0
12 1 3 630 10 1 2 0 177 e03.gif 0 1
12 1 3 631 10 2 2 1 90 e13.gif 0 0
12 1 3 632 10 0 0 1 146 d05.gif 0 1
12 1 3 633 10 1 2 0 249 e12.gif 0 0
12 1 3 634 10 1 1 1 154 c10.gif 0 0
12 1 3 635 10 1 1 1 139 c02.gif 0 1
12 1 3 636 10 2 1 0 193 c05.gif 0 1
12 1 3 637 10 0 0 1 530 d12.gif 0 0
12 1 3 638 10 0 2 0 384 e15.gif 0 0
12 1 3 639 10 0 1 0 163 c16.gif 0 0
12 1 3 640 10 1 1 1 51 c04.gif 0 1
12 1 3 641 10 2 2 1 323 e11.gif 0 0
12 1 3 642 10 0 1 0 225 c07.gif 0 1
12 1 3 643 10 1 0 0 120 d01.gif 0 1
12 1 3 644 10 2 0 0 402 d11.gif 0 0
12 1 3 645 10 0 1 0 207 c15.gif 0 0
12 1 3 646 10 1 2 0 34 e08.gif 0 1
12 1 3 647 10 1 2 0 265 e14.gif 0 0
12 1 3 648 10 2 0 0 90 d07.gif 0 1
12 1 3 649 10 0 1 0 162 c01.gif 0 1
12 1 3 650 10 1 2 0 209 e01.gif 0 1
12 1 3 651 10 2 0 0 177 d14.gif 0 0
12 1 3 652 10 1 1 1 425 c13.gif 0 0
12 1 3 653 10 0 0 1 120 d02.gif 0 1
12 1 3 654 10 1 1 1 264 c12.gif 0 0
12 1 3 655 10 2 2 1 483 e04.gif 0 1
12 1 3 656 10 0 2 0 448 e07.gif 0 1
12 1 3 657 10 1 2 0 184 e02.gif 0 1
12 1 3 658 10 2 2 1 247 e16.gif 0 0
12 1 3 659 10 0 2 0 362 e06.gif 0 1
12 1 3 660 10 1 0 0 258 d16.gif 0 0
12 1 3 661 10 2 0 0 258 d09.gif 0 0
12 1 3 662 10 0 0 1 313 d08.gif 0 1
12 1 3 663 10 1 0 0 274 d04.gif 0 1
12 1 3 664 10 2 2 1 296 e09.gif 0 0
12 1 3 665 10 0 0 1 265 d10.gif 0 0
12 1 3 666 10 1 1 1 154 c14.gif 0 0
12 1 3 667 10 2 1 0 202 c03.gif 0 1
12 1 3 668 10 0 0 1 288 d15.gif 0 0
12 1 3 669 10 2 1 0 355 c08.gif 0 1
12 1 3 670 10 1 2 0 1585 e05.gif 0 1
12 1 3 671 10 0 0 1 168 d03.gif 0 1
13 0 1 0 1 0 1 0 2377 f07.gif 0 X 
13 0 1 1 1 1 2 0 943 e03.gif 0 X 
13 0 1 2 1 0 1 0 1376 f04.gif 0 X 
13 0 1 3 1 1 1 1 304 f07.gif 0 X 
13 0 1 4 1 1 2 0 465 e06.gif 0 X 
13 0 1 5 1 1 0 0 592 c08.gif 0 X 
13 0 1 6 1 1 0 0 527 c06.gif 0 X 
13 0 1 7 1 1 0 0 857 c04.gif 0 X 
13 0 1 8 1 1 0 0 600 c07.gif 0 X 
13 0 1 9 1 0 1 0 232 f03.gif 0 X 
13 0 1 10 1 0 2 0 504 e08.gif 0 X 
13 0 1 11 1 2 0 0 185 c05.gif 0 X 
13 0 1 12 1 1 2 0 624 e04.gif 0 X 
13 0 1 13 1 1 0 0 599 c01.gif 0 X 
13 0 1 14 1 1 2 0 1096 e05.gif 0 X 
13 0 1 15 1 0 0 1 247 c01.gif 0 X 
13 0 1 16 1 1 0 0 265 c04.gif 0 X 
13 0 1 17 1 2 2 1 248 e01.gif 0 X 
13 0 1 18 1 2 0 0 104 c01.gif 0 X 
13 0 1 19 1 2 1 0 218 f06.gif 0 X 
13 0 1 20 1 1 1 1 488 f08.gif 0 X 
13 0 1 21 1 2 0 0 247 c05.gif 0 X 
13 0 1 22 1 1 1 1 1383 f01.gif 0 X 
13 0 1 23 1 2 2 1 480 e01.gif 0 X 
13 0 1 24 1 0 1 0 193 f02.gif 0 X 
13 0 1 25 1 1 0 0 182 c07.gif 0 X 
13 0 1 26 1 0 2 0 161 e07.gif 0 X 
13 0 1 27 1 2 0 0 200 c03.gif 0 X 
13 0 1 28 1 0 2 0 495 e02.gif 0 X 
13 0 1 29 1 2 1 0 433 f06.gif 0 X 
13 0 1 30 1 1 1 1 136 f04.gif 0 X 
13 0 1 31 1 2 2 1 528 e03.gif 0 X 
13 0 1 32 1 2 2 1 120 e02.gif 0 X 
13 0 1 33 1 0 2 0 272 e07.gif 0 X 
13 0 1 34 1 0 1 0 279 f03.gif 0 X 
13 0 1 35 1 2 0 0 183 c03.gif 0 X 
13 0 1 36 1 0 2 0 104 e04.gif 0 X 
13 0 1 37 1 2 0 0 192 c08.gif 0 X 
13 0 1 38 1 0 2 0 199 e01.gif 0 X 
13 0 1 39 1 0 1 0 168 f03.gif 0 X 
13 0 1 40 1 1 2 0 256 e06.gif 0 X 
13 0 1 41 1 2 2 1 195 e03.gif 0 X 
13 0 1 42 1 1 2 0 215 e04.gif 0 X 
13 0 1 43 1 1 1 1 168 f08.gif 0 X 
13 0 1 44 1 2 0 0 177 c05.gif 0 X 
13 0 1 45 1 0 0 1 136 c07.gif 0 X 
13 0 1 46 1 2 1 0 808 f01.gif 0 X 
13 0 1 47 1 1 1 1 88 f01.gif 0 X 
13 0 1 48 1 2 2 1 178 e08.gif 0 X 
13 0 1 49 1 2 0 0 97 c03.gif 0 X 
13 0 1 50 1 2 1 0 241 f06.gif 0 X 
13 0 1 51 1 1 2 0 1039 e08.gif 0 X 
13 0 1 52 1 2 1 0 650 f07.gif 0 X 
13 0 1 53 1 1 2 0 215 e07.gif 0 X 
13 0 1 54 1 1 1 1 111 f05.gif 0 X 
13 0 1 55 1 2 0 0 1161 c04.gif 0 X 
13 0 1 56 1 0 1 0 88 f05.gif 0 X 
13 0 1 57 1 1 2 0 39 e06.gif 0 X 
13 0 1 58 1 1 1 1 968 f04.gif 0 X 
13 0 1 59 1 0 2 0 170 e05.gif 0 X 
13 0 1 60 1 2 0 0 232 c02.gif 0 X 
13 0 1 61 1 0 2 0 154 e06.gif 0 X 
13 0 1 62 1 2 0 0 489 c06.gif 0 X 
13 0 1 63 1 2 2 1 783 e01.gif 0 X 
13 0 1 64 1 0 1 0 319 f05.gif 0 X 
13 0 1 65 1 2 2 1 250 e03.gif 0 X 
13 0 1 66 1 0 2 0 224 e04.gif 0 X 
13 0 1 67 1 2 0 0 207 c07.gif 0 X 
13 0 1 68 1 2 2 1 207 e05.gif 0 X 
13 0 1 69 1 1 2 0 792 e02.gif 0 X 
13 0 1 70 1 1 1 1 246 f08.gif 0 X 
13 0 1 71 1 2 0 0 776 c06.gif 0 X 
13 0 1 72 2 2 1 0 2183 f07.gif 0 X 
13 0 1 73 2 1 2 0 207 e03.gif 0 X 
13 0 1 74 2 1 1 1 457 f04.gif 0 X 
13 0 1 75 2 2 1 0 320 f07.gif 0 X 
13 0 1 76 2 1 2 0 151 e06.gif 0 X 
13 0 1 77 2 2 0 0 480 c08.gif 0 X 
13 0 1 78 2 2 0 0 231 c06.gif 0 X 
13 0 1 79 2 1 0 0 257 c04.gif 0 X 
13 0 1 80 2 0 0 1 192 c07.gif 0 X 
13 0 1 81 2 0 1 0 153 f03.gif 0 X 
13 0 1 82 2 0 2 0 687 e08.gif 0 X 
13 0 1 83 2 1 0 0 233 c05.gif 0 X 
13 0 1 84 2 2 2 1 232 e04.gif 0 X 
13 0 1 85 2 1 0 0 216 c01.gif 0 X 
13 0 1 86 2 2 2 1 527 e05.gif 0 X 
13 0 1 87 2 0 0 1 224 c01.gif 0 X 
13 0 1 88 2 2 0 0 391 c04.gif 0 X 
13 0 1 89 2 0 2 0 295 e01.gif 0 X 
13 0 1 90 2 2 0 0 344 c01.gif 0 X 
13 0 1 91 2 2 1 0 633 f06.gif 0 X 
13 0 1 92 2 1 1 1 130 f08.gif 0 X 
13 0 1 93 2 0 0 1 201 c05.gif 0 X 
13 0 1 94 2 2 1 0 201 f01.gif 0 X 
13 0 1 95 2 1 2 0 167 e01.gif 0 X 
13 0 1 96 2 0 1 0 194 f02.gif 0 X 
13 0 1 97 2 2 0 0 179 c07.gif 0 X 
13 0 1 98 2 1 2 0 296 e07.gif 0 X 
13 0 1 99 2 2 0 0 312 c03.gif 0 X 
13 0 1 100 2 2 2 1 164 e02.gif 0 X 
13 0 1 101 2 0 1 0 168 f06.gif 0 X 
13 0 1 102 2 1 1 1 152 f04.gif 0 X 
13 0 1 103 2 2 2 1 652 e03.gif 0 X 
13 0 1 104 2 0 2 0 209 e02.gif 0 X 
13 0 1 105 2 1 2 0 191 e07.gif 0 X 
13 0 1 106 2 0 1 0 488 f03.gif 0 X 
13 0 1 107 2 1 0 0 176 c03.gif 0 X 
13 0 1 108 2 0 2 0 439 e04.gif 0 X 
13 0 1 109 2 2 0 0 440 c08.gif 0 X 
13 0 1 110 2 0 2 0 151 e01.gif 0 X 
13 0 1 111 2 2 1 0 367 f03.gif 0 X 
13 0 1 112 2 1 2 0 199 e06.gif 0 X 
13 0 1 113 2 1 2 0 496 e03.gif 0 X 
13 0 1 114 2 1 2 0 207 e04.gif 0 X 
13 0 1 115 2 2 1 0 191 f08.gif 0 X 
13 0 1 116 2 1 0 0 162 c05.gif 0 X 
13 0 1 117 2 0 0 1 144 c07.gif 0 X 
13 0 1 118 2 2 1 0 211 f01.gif 0 X 
13 0 1 119 2 2 1 0 881 f01.gif 0 X 
13 0 1 120 2 2 2 1 431 e08.gif 0 X 
13 0 1 121 2 1 0 0 945 c03.gif 0 X 
13 0 1 122 2 0 1 0 576 f06.gif 0 X 
13 0 1 123 2 2 2 1 304 e08.gif 0 X 
13 0 1 124 2 0 1 0 207 f07.gif 0 X 
13 0 1 125 2 1 2 0 376 e07.gif 0 X 
13 0 1 126 2 0 1 0 1184 f05.gif 0 X 
13 0 1 127 2 1 0 0 263 c04.gif 0 X 
13 0 1 128 2 1 1 1 345 f05.gif 0 X 
13 0 1 129 2 2 2 1 50 e06.gif 0 X 
13 0 1 130 2 0 1 0 152 f04.gif 0 X 
13 0 1 131 2 2 2 1 247 e05.gif 0 X 
13 0 1 132 2 2 0 0 696 c02.gif 0 X 
13 0 1 133 2 1 2 0 1039 e06.gif 0 X 
13 0 1 134 2 2 0 0 151 c06.gif 0 X 
13 0 1 135 2 0 2 0 176 e01.gif 0 X 
13 0 1 136 2 1 1 1 118 f05.gif 0 X 
13 0 1 137 2 1 2 0 144 e03.gif 0 X 
13 0 1 138 2 2 2 1 56 e04.gif 0 X 
13 0 1 139 2 2 0 0 32 c07.gif 0 X 
13 0 1 140 2 0 2 0 144 e05.gif 0 X 
13 0 1 141 2 2 2 1 217 e02.gif 0 X 
13 0 1 142 2 1 1 1 72 f08.gif 0 X 
13 0 1 143 2 2 0 0 888 c06.gif 0 X 
13 0 1 144 3 0 1 0 1182 f07.gif 0 X 
13 0 1 145 3 2 2 1 106 e03.gif 0 X 
13 0 1 146 3 2 1 0 44 f04.gif 0 X 
13 0 1 147 3 0 1 0 367 f07.gif 0 X 
13 0 1 148 3 2 2 1 169 e06.gif 0 X 
13 0 1 149 3 0 0 1 338 c08.gif 0 X 
13 0 1 150 3 0 0 1 105 c06.gif 0 X 
13 0 1 151 3 2 0 0 89 c04.gif 0 X 
13 0 1 152 3 1 0 0 379 c07.gif 0 X 
13 0 1 153 3 0 1 0 306 f03.gif 0 X 
13 0 1 154 3 1 2 0 207 e08.gif 0 X 
13 0 1 155 3 2 0 0 688 c05.gif 0 X 
